,gyr_time,gyrX,gyrY,gyrZ
0,0.015342776,-0.12163854,-0.0093156947,0.072005741
1,0.017342776,-0.12163854,-0.0093156947,0.072005741
2,0.019342776,-0.12163854,-0.0093156947,0.072005741
3,0.021342776,-0.12163854,-0.0093156947,0.072005741
4,0.023347776,-0.11430816,0.04932737,-0.0092393365
5,0.025347776,-0.11491902,0.065820731,-0.011682798
6,0.027347776,-0.11736248,0.071318515,-0.018402316
7,0.029347776,-0.11919508,0.078038037,-0.020845776
8,0.031347776,-0.11980595,0.07620544,-0.024510968
9,0.033347776,-0.12286028,0.071318515,-0.025121834
10,0.035347776,-0.12408201,0.069485925,-0.027565295
11,0.037347776,-0.12408201,0.062155537,-0.031841353
12,0.039345321,-0.12652546,0.063988134,-0.02939789
13,0.041343154,-0.1259146,0.060322944,-0.03306308
14,0.04334323,-0.12896892,0.055436023,-0.026954429
15,0.045343301,-0.13019066,0.056046885,-0.025121834
16,0.047343367,-0.12347114,0.063988134,-0.028787024
17,0.049342742,-0.12408201,0.069485925,-0.030008756
18,0.0513428,-0.12102768,0.073151112,-0.032452215
19,0.053342855,-0.11614075,0.08353582,-0.039171733
20,0.055342907,-0.11064297,0.096363991,-0.040393464
21,0.057342907,-0.11125384,0.10613783,-0.040393464
22,0.059342907,-0.11247557,0.10797043,-0.039171733
23,0.061342907,-0.11430816,0.10797043,-0.034895677
24,0.063342907,-0.11736248,0.1049161,-0.033673946
25,0.065342907,-0.11980595,0.10369437,-0.030619621
26,0.067342907,-0.12713633,0.10552697,-0.028787024
27,0.069342907,-0.12774719,0.1049161,-0.024510968
28,0.071342907,-0.12835807,0.10308351,-0.019624045
29,0.073342907,-0.12469286,0.1085813,-0.019624045
30,0.075342907,-0.12530373,0.11102476,-0.019624045
31,0.077342907,-0.12041681,0.11407909,-0.012293663
32,0.07934204,-0.11308643,0.11957687,-0.0080176061
33,0.081341173,-0.11430816,0.12018774,-0.0067958757
34,0.083339806,-0.11247557,0.12812899,-0.0012980887
35,0.085338939,-0.10758864,0.12996158,-7.6358156e-05
36,0.087338939,-0.10453431,0.13790283,0.0035888334
37,0.089338972,-0.10514518,0.13973543,0.0078648897
38,0.091339005,-0.10209085,0.14278975,0.0096974857
39,0.093339038,-0.10086913,0.14462234,0.0084757553
40,0.095339071,-0.10086913,0.14584407,0.010308351
41,0.097339104,-0.099647395,0.14401148,0.0084757553
42,0.099340037,-0.10086913,0.14156802,0.0084757553
43,0.10134094,-0.10331258,0.13729197,0.0084757553
44,0.10334094,-0.10331258,0.13362677,0.0096974857
45,0.1053409,-0.10575604,0.13118331,0.013362677
46,0.10734087,-0.10514518,0.12996158,0.0084757553
47,0.1093412,-0.10209085,0.13179417,0.0011453723
48,0.11134117,-0.099647395,0.13362677,-0.004352415
49,0.11334113,-0.094149604,0.1470658,-0.015347989
50,0.1153411,-0.083764896,0.16661349,-0.027565295
51,0.1173411,-0.070936725,0.18799378,-0.037950002
52,0.11934023,-0.067271538,0.19898935,-0.045891251
53,0.1213394,-0.060552016,0.21303925,-0.048945576
54,0.12333857,-0.048334714,0.23625213,-0.055665094
55,0.12533773,-0.039171733,0.25885415,-0.067271538
56,0.12733776,-0.03306308,0.27779096,-0.077045381
57,0.1293378,-0.027565295,0.2863431,-0.081321433
58,0.13133783,-0.025121834,0.30344731,-0.089873552
59,0.13333786,-0.024510968,0.31322116,-0.092927873
60,0.13533786,-0.020845776,0.31627548,-0.098425664
61,0.13733786,-0.022678372,0.32543847,-0.10147999
62,0.13933853,-0.025732698,0.32421672,-0.10147999
63,0.1413394,-0.031230485,0.32666019,-0.10514518
64,0.14334026,-0.037950002,0.32421672,-0.10331258
65,0.14534113,-0.040393464,0.31994069,-0.099647395
66,0.14734113,-0.047723848,0.27473664,-0.086208358
67,0.14934109,-0.055054229,0.27046058,-0.08315403
68,0.15134106,-0.058719423,0.26557365,-0.081321433
69,0.15334103,-0.068493262,0.2576324,-0.073991053
70,0.15534099,-0.073380187,0.25152376,-0.072769322
71,0.15734096,-0.077045381,0.24541511,-0.069104128
72,0.15934006,-0.082543164,0.24541511,-0.067882404
73,0.16133916,-0.081932299,0.23808473,-0.064828075
74,0.16333826,-0.084986627,0.23625213,-0.066660672
75,0.16533739,-0.085597493,0.23747386,-0.062384613
76,0.16733656,-0.086819224,0.23441954,-0.064828075
77,0.16933569,-0.086819224,0.23625213,-0.064828075
78,0.17133572,-0.089262687,0.23380867,-0.06421721
79,0.17333576,-0.088040955,0.23380867,-0.065438941
80,0.17533579,-0.088040955,0.23441954,-0.066049807
81,0.17733582,-0.086819224,0.22831088,-0.061773747
82,0.17933672,-0.08743009,0.22525656,-0.063606344
83,0.18133759,-0.089262687,0.2228131,-0.061162882
84,0.18333842,-0.088040955,0.21853705,-0.058719423
85,0.18533925,-0.086208358,0.20998493,-0.059330288
86,0.18733922,-0.089262687,0.19837849,-0.057497691
87,0.18933919,-0.084375761,0.1910481,-0.058108557
88,0.19133915,-0.08315403,0.17577648,-0.051999904
89,0.19333912,-0.085597493,0.16722436,-0.055665094
90,0.19533912,-0.084375761,0.15378532,-0.050167307
91,0.19733912,-0.082543164,0.13790283,-0.050778173
92,0.19933848,-0.084375761,0.12751812,-0.050778173
93,0.20133905,-0.086208358,0.11346822,-0.047112983
94,0.20333908,-0.085597493,0.09941832,-0.045280386
95,0.20533912,-0.085597493,0.092698798,-0.042836927
96,0.20733915,-0.086819224,0.082924955,-0.039782599
97,0.20933918,-0.088040955,0.072540246,-0.034895677
98,0.21133921,-0.08743009,0.069485925,-0.03733914
99,0.21333921,-0.086819224,0.068264194,-0.033673946
100,0.21533921,-0.090484418,0.062766403,-0.031841353
101,0.21733921,-0.089873552,0.061544672,-0.03306308
102,0.21934008,-0.089873552,0.061544672,-0.030619621
103,0.22134095,-0.093538739,0.057268616,-0.030619621
104,0.22334181,-0.092927873,0.056046885,-0.03306308
105,0.22534268,-0.091706142,0.053603426,-0.031230485
106,0.22734351,-0.095982201,0.050549097,-0.030619621
107,0.22934438,-0.098425664,0.048105638,-0.028787024
108,0.23134434,-0.097814798,0.046273042,-0.030619621
109,0.23334431,-0.10270172,0.044440448,-0.030619621
110,0.23534428,-0.10209085,0.041996986,-0.02939789
111,0.23734424,-0.10453431,0.040775254,-0.027565295
112,0.23934334,-0.10697778,0.039553523,-0.027565295
113,0.24134244,-0.10942124,0.038942661,-0.026343564
114,0.24334217,-0.11125384,0.040164389,-0.025732698
115,0.24534221,-0.11308643,0.036499199,-0.023289237
116,0.24734224,-0.11552989,0.038331795,-0.020845776
117,0.24934227,-0.11552989,0.039553523,-0.023900103
118,0.25134231,-0.11614075,0.041996986,-0.021456642
119,0.25334234,-0.11675162,0.04505131,-0.021456642
120,0.25534237,-0.11675162,0.051159963,-0.019624045
121,0.2573424,-0.11491902,0.054825157,-0.021456642
122,0.25934327,-0.11552989,0.055436023,-0.018402316
123,0.2613427,-0.11675162,0.059712078,-0.019624045
124,0.26334267,-0.11675162,0.065209866,-0.019624045
125,0.26534264,-0.11858422,0.062155537,-0.018402316
126,0.2673426,-0.12041681,0.067653328,-0.01779145
127,0.26934257,-0.12102768,0.069485925,-0.015347989
128,0.27134253,-0.12347114,0.074372843,-0.013515393
129,0.27334253,-0.12469286,0.080481499,-0.015958855
130,0.27534253,-0.12469286,0.085368417,-0.017180584
131,0.27734257,-0.12102768,0.094531395,-0.015958855
132,0.27934173,-0.12347114,0.09941832,-0.015958855
133,0.2813409,-0.11614075,0.10308351,-0.017180584
134,0.28334007,-0.11736248,0.1067487,-0.017180584
135,0.28533923,-0.11491902,0.11041389,-0.018402316
136,0.28733926,-0.11369729,0.11102476,-0.017180584
137,0.2893393,-0.11125384,0.11041389,-0.01779145
138,0.29133933,-0.10758864,0.10797043,-0.020234911
139,0.29333933,-0.10636691,0.10919216,-0.019013181
140,0.29533893,-0.10331258,0.10125092,-0.021456642
141,0.29733893,-0.097814798,0.097585723,-0.024510968
142,0.2993398,-0.097203933,0.08781188,-0.022678372
143,0.30134066,-0.092927873,0.076816306,-0.025121834
144,0.30334016,-0.091095276,0.065209866,-0.024510968
145,0.30534013,-0.088651821,0.056046885,-0.025732698
146,0.30734009,-0.08743009,0.031612277,-0.025732698
147,0.30934006,-0.086208358,0.021838432,-0.026954429
148,0.31134003,-0.084375761,0.012675454,-0.027565295
149,0.31333999,-0.082543164,-0.0038179078,-0.028787024
150,0.31533996,-0.078877978,-0.019089539,-0.031841353
151,0.31733992,-0.077656247,-0.038026363,-0.03306308
152,0.31933899,-0.073991053,-0.048411071,-0.03733914
153,0.32133812,-0.070936725,-0.057574049,-0.041615196
154,0.32333729,-0.067271538,-0.064904429,-0.045280386
155,0.32533646,-0.062995479,-0.072234817,-0.048945576
156,0.32733562,-0.059941154,-0.083230391,-0.051999904
157,0.32933565,-0.055665094,-0.084452122,-0.054443367
158,0.33133569,-0.053221636,-0.088117309,-0.058719423
159,0.33333572,-0.048945576,-0.095447697,-0.062384613
160,0.33533575,-0.047112983,-0.096058562,-0.062384613
161,0.33733575,-0.04466952,-0.10033461,-0.063606344
162,0.33933659,-0.04466952,-0.10338894,-0.063606344
163,0.34133742,-0.04466952,-0.10461067,-0.06421721
164,0.34333825,-0.044058654,-0.11010846,-0.063606344
165,0.34533909,-0.042836927,-0.11438452,-0.056886826
166,0.34733905,-0.042836927,-0.11255192,-0.055054229
167,0.34933902,-0.042226061,-0.11499538,-0.055665094
168,0.35133898,-0.043447789,-0.11927144,-0.053221636
169,0.35333898,-0.046502117,-0.1217149,-0.05261077
170,0.35533942,-0.043447789,-0.13087788,-0.050778173
171,0.35733945,-0.04100433,-0.13698652,-0.049556442
172,0.35933862,-0.041615196,-0.14248432,-0.04466952
173,0.36133778,-0.04466952,-0.15225816,-0.040393464
174,0.36333771,-0.047723848,-0.15714508,-0.034895677
175,0.36533688,-0.048945576,-0.16203201,-0.03306308
176,0.36733605,-0.048945576,-0.16447547,-0.02939789
177,0.36933608,-0.051389039,-0.16752979,-0.025732698
178,0.37133608,-0.051999904,-0.16997325,-0.024510968
179,0.37333608,-0.054443367,-0.1693624,-0.022067508
180,0.37533608,-0.057497691,-0.17180584,-0.023289237
181,0.37733608,-0.057497691,-0.1693624,-0.021456642
182,0.37933698,-0.059330288,-0.16997325,-0.021456642
183,0.38133784,-0.059941154,-0.1656972,-0.021456642
184,0.38333868,-0.058108557,-0.16630806,-0.020845776
185,0.38533951,-0.059330288,-0.16325374,-0.024510968
186,0.38734034,-0.056886826,-0.1601994,-0.026343564
187,0.38934031,-0.056886826,-0.15897769,-0.023289237
188,0.39134028,-0.057497691,-0.15531249,-0.026954429
189,0.39334024,-0.055665094,-0.15409076,-0.02939789
190,0.39534021,-0.054443367,-0.14920384,-0.030619621
191,0.39734017,-0.051999904,-0.14553864,-0.03306308
192,0.39933931,-0.054443367,-0.14248432,-0.033673946
193,0.40133847,-0.048334714,-0.1375974,-0.036728274
194,0.40333851,-0.045280386,-0.13698652,-0.038560867
195,0.40533854,-0.044058654,-0.13332134,-0.039782599
196,0.40733857,-0.036728274,-0.13637567,-0.04466952
197,0.4093386,-0.036117408,-0.13332134,-0.044058654
198,0.41133864,-0.033673946,-0.1339322,-0.045891251
199,0.41333867,-0.028176159,-0.13332134,-0.045891251
200,0.41533867,-0.025121834,-0.13637567,-0.046502117
201,0.41733864,-0.023289237,-0.1375974,-0.045280386
202,0.41933947,-0.019013181,-0.13515393,-0.041615196
203,0.4213403,-0.01779145,-0.14004086,-0.042226061
204,0.42334114,-0.016569721,-0.14065172,-0.041615196
205,0.42534197,-0.012293663,-0.14553864,-0.037950002
206,0.4273428,-0.012293663,-0.1498147,-0.035506543
207,0.42934277,-0.011071933,-0.14859296,-0.031841353
208,0.43134277,-0.012293663,-0.14859296,-0.026954429
209,0.4333428,-0.010461068,-0.14676037,-0.020845776
210,0.43534283,-0.0092393365,-0.14676037,-0.019013181
211,0.43734287,-0.010461068,-0.14676037,-0.012904529
212,0.439342,-0.0080176061,-0.14431691,-0.011682798
213,0.44134117,-0.0098502021,-0.14309518,-0.0074067409
214,0.4433412,-0.0080176061,-0.13698652,-0.0049632802
215,0.44534123,-0.0061850105,-0.13026701,-0.0031306844
216,0.44734127,-0.0031306844,-0.12232576,0.0005345071
217,0.44934127,-0.0025198192,-0.11988231,0.0005345071
218,0.45134127,-0.0037415496,-0.11438452,0.002977968
219,0.45334127,-0.00068722339,-0.11255192,-7.6358156e-05
220,0.45534127,-0.00068722339,-0.10827587,0.002977968
221,0.45734127,-7.6358156e-05,-0.10644327,0.0017562376
222,0.45934213,-0.00068722339,-0.10399981,-7.6358156e-05
223,0.46134296,-7.6358156e-05,-0.10461067,-0.0012980887
224,0.46334293,-0.0019089539,-0.10338894,-0.0019089539
225,0.4653429,-0.0037415496,-0.10338894,-0.0012980887
226,0.46734286,-0.0031306844,-0.10155635,-0.004352415
227,0.46934283,-0.0067958757,-0.10094548,-0.0019089539
228,0.47134279,-0.0074067409,-0.10216721,-0.004352415
229,0.47334276,-0.012904529,-0.10033461,-0.004352415
230,0.47534273,-0.014126259,-0.099112883,-0.0067958757
231,0.47734273,-0.018402316,-0.093004234,-0.0061850105
232,0.47934186,-0.019624045,-0.091782503,-0.010461068
233,0.48134103,-0.022067508,-0.092393368,-0.012293663
234,0.48334019,-0.024510968,-0.08933904,-0.014126259
235,0.48533936,-0.025732698,-0.090560772,-0.01779145
236,0.48733939,-0.023289237,-0.085673854,-0.024510968
237,0.48933942,-0.023900103,-0.080786929,-0.022678372
238,0.49133946,-0.025121834,-0.0777326,-0.026343564
239,0.49333946,-0.025121834,-0.071623951,-0.027565295
240,0.49533942,-0.025121834,-0.067958757,-0.026954429
241,0.49733939,-0.023289237,-0.065515295,-0.034284811
242,0.49934025,-0.024510968,-0.06307184,-0.033673946
243,0.50134109,-0.023900103,-0.061850104,-0.036117408
244,0.50334105,-0.022678372,-0.056352317,-0.038560867
245,0.50534102,-0.021456642,-0.052076261,-0.040393464
246,0.50734098,-0.020845776,-0.044745877,-0.041615196
247,0.50934098,-0.020234911,-0.04352415,-0.04100433
248,0.51134102,-0.01779145,-0.0355829,-0.042226061
249,0.51334105,-0.017180584,-0.030085113,-0.04100433
250,0.51534022,-0.01779145,-0.021532999,-0.044058654
251,0.51734025,-0.013515393,-0.014202617,-0.041615196
252,0.51933942,-0.012904529,-0.011759156,-0.039782599
253,0.52133858,-0.010461068,-0.0032070426,-0.039171733
254,0.52333775,-0.0086284718,-0.001985312,-0.040393464
255,0.52533691,-0.0055741454,-0.0013744468,-0.043447789
256,0.52733731,-0.0031306844,0.0053450707,-0.042226061
257,0.52933731,-0.0019089539,0.012064588,-0.042226061
258,0.53133731,-7.6358156e-05,0.01450805,-0.04100433
259,0.53333731,0.0035888334,0.013897184,-0.03733914
260,0.53533731,0.0060322941,0.020005837,-0.034284811
261,0.53733731,0.007254025,0.020616703,-0.031841353
262,0.53933818,0.007254025,0.021227567,-0.030619621
263,0.54133901,0.0084757553,0.023060163,-0.026343564
264,0.54333985,0.0084757553,0.023671029,-0.022067508
265,0.54534068,0.010308351,0.027947085,-0.017180584
266,0.54734064,0.014584408,0.035277467,-0.010461068
267,0.54934128,0.013973542,0.038942661,-0.0074067409
268,0.55134124,0.013973542,0.048716504,-0.0025198192
269,0.55334121,0.015806139,0.052381694,-0.0019089539
270,0.55534121,0.013362677,0.06093381,0.0048105638
271,0.55734124,0.015195273,0.070707649,0.010308351
272,0.55934038,0.014584408,0.078038037,0.012140946
273,0.56133954,0.012751812,0.089033611,0.015806139
274,0.56333871,0.012140946,0.10247265,0.023136521
275,0.56533787,0.0090866201,0.10797043,0.023747386
276,0.56733704,0.0066431593,0.11591168,0.029856039
277,0.56933707,0.0054214289,0.12629639,0.031688634
278,0.57133707,0.0023671028,0.13057245,0.030466905
279,0.57333704,-7.6358156e-05,0.13423763,0.03596469
280,0.57533787,-0.0025198192,0.13729197,0.039019018
281,0.57733784,-0.0074067409,0.13668109,0.042073343
282,0.57933874,-0.011071933,0.1385137,0.045738537
283,0.58133957,-0.015347989,0.13973543,0.04757113
284,0.5833404,-0.015958855,0.14095716,0.048792861
285,0.58534124,-0.018402316,0.14156802,0.051236324
286,0.58734084,-0.020234911,0.14340061,0.051236324
287,0.58934084,-0.021456642,0.14034629,0.051236324
288,0.59134084,-0.026343564,0.13790283,0.054290649
289,0.59334084,-0.028176159,0.13545936,0.053068917
290,0.59534084,-0.03306308,0.1330159,0.054901514
291,0.59734084,-0.039171733,0.1330159,0.052458052
292,0.59933997,-0.04466952,0.13179417,0.054901514
293,0.60134084,-0.047723848,0.13240504,0.053068917
294,0.60334084,-0.051999904,0.13729197,0.051847186
295,0.60534087,-0.05261077,0.14278975,0.046960264
296,0.6073409,-0.057497691,0.14462234,0.04390594
297,0.60934027,-0.059330288,0.14950927,0.039629884
298,0.6113403,-0.059330288,0.15134187,0.03596469
299,0.61334033,-0.061162882,0.15134187,0.0322995
300,0.6153405,-0.061773747,0.15317446,0.028023442
301,0.6173405,-0.061773747,0.1525636,0.018860465
302,0.6193414,-0.06421721,0.15439619,0.018860465
303,0.62134223,-0.066049807,0.15134187,0.011530082
304,0.62334307,-0.06421721,0.14828753,0.007254025
305,0.6253439,-0.063606344,0.14828753,0.0023671028
306,0.62734473,-0.06421721,0.14584407,-0.004352415
307,0.6293447,-0.062995479,0.14462234,-0.011071933
308,0.63134466,-0.061773747,0.14217889,-0.013515393
309,0.63334466,-0.059941154,0.14217889,-0.015958855
310,0.6353447,-0.060552016,0.14278975,-0.020234911
311,0.63734473,-0.058719423,0.14034629,-0.023900103
312,0.63934383,-0.056886826,0.1385137,-0.026343564
313,0.641343,-0.055665094,0.13668109,-0.025732698
314,0.64334303,-0.055054229,0.13668109,-0.028176159
315,0.64534306,-0.053832501,0.13484851,-0.030619621
316,0.6473431,-0.051389039,0.12996158,-0.03306308
317,0.64934313,-0.049556442,0.12873985,-0.031841353
318,0.65134313,-0.048945576,0.12324207,-0.031841353
319,0.65334313,-0.046502117,0.11591168,-0.030619621
320,0.65534313,-0.048945576,0.11224649,-0.030008756
321,0.65734313,-0.045891251,0.10735957,-0.030619621
322,0.65934329,-0.045891251,0.10186178,-0.028787024
323,0.66134243,-0.043447789,0.098807454,-0.028787024
324,0.66334243,-0.044058654,0.089033611,-0.026954429
325,0.66534239,-0.042836927,0.085368417,-0.025732698
326,0.66734236,-0.036728274,0.084146686,-0.024510968
327,0.66934232,-0.036728274,0.082314089,-0.023289237
328,0.67134229,-0.033673946,0.082314089,-0.022067508
329,0.67334226,-0.031230485,0.084146686,-0.015958855
330,0.67534209,-0.023900103,0.085368417,-0.01779145
331,0.67734206,-0.021456642,0.085979283,-0.012293663
332,0.67934116,-0.019013181,0.08353582,-0.012904529
333,0.68134029,-0.014737124,0.082924955,-0.011682798
334,0.68333946,-0.011071933,0.084146686,-0.010461068
335,0.68533862,-0.004352415,0.084757552,-0.0061850105
336,0.68733865,0.0011453723,0.081703223,-0.0067958757
337,0.68933869,0.002977968,0.078648902,-0.0055741454
338,0.69133872,0.012140946,0.07620544,-0.0037415496
339,0.69333875,0.018860465,0.074983709,-0.0019089539
340,0.69533875,0.023747386,0.073151112,-0.0031306844
341,0.69733875,0.0322995,0.073151112,0.0017562376
342,0.69933959,0.0322995,0.074983709,0.0054214289
343,0.70134042,0.0322995,0.075594574,0.0078648897
344,0.70334039,0.035353824,0.075594574,0.010919216
345,0.70534035,0.0322995,0.078038037,0.011530082
346,0.70734032,0.028634308,0.078038037,0.018860465
347,0.70934028,0.027412578,0.080481499,0.018860465
348,0.71134028,0.019471331,0.082314089,0.020082194
349,0.71334032,0.013973542,0.078648902,0.021914791
350,0.71534035,0.0096974857,0.077427171,0.023136521
351,0.71734038,0.0005345071,0.07192938,0.028634308
352,0.71934022,-0.0025198192,0.069485925,0.027412578
353,0.72133938,-0.0092393365,0.068875059,0.0322995
354,0.72333855,-0.015347989,0.067653328,0.034132097
355,0.72533771,-0.015958855,0.065209866,0.0322995
356,0.72733688,-0.020845776,0.070096783,0.037186421
357,0.72933688,-0.025732698,0.074372843,0.038408153
358,0.73133688,-0.028176159,0.074372843,0.035353824
359,0.73333688,-0.031841353,0.07620544,0.036575556
360,0.73533688,-0.039171733,0.079870634,0.035353824
361,0.73733688,-0.04466952,0.081092358,0.037186421
362,0.73933758,-0.045280386,0.080481499,0.034742963
363,0.74133844,-0.051389039,0.08353582,0.0322995
364,0.74333928,-0.053832501,0.084146686,0.033521231
365,0.74534011,-0.05627596,0.082314089,0.028023442
366,0.74734008,-0.061162882,0.079259768,0.024358252
367,0.74934004,-0.063606344,0.077427171,0.021303926
368,0.75134001,-0.062384613,0.077427171,0.015806139
369,0.75333998,-0.060552016,0.074372843,0.011530082
370,0.75533994,-0.058719423,0.070707649,0.0090866201
371,0.75733991,-0.05627596,0.061544672,0.0048105638
372,0.75933904,-0.053832501,0.054825157,-0.0031306844
373,0.76133821,-0.053221636,0.048716504,-0.0061850105
374,0.76333737,-0.045891251,0.040164389,-0.011071933
375,0.76533654,-0.04466952,0.02977968,-0.019013181
376,0.7673357,-0.040393464,0.024281893,-0.022678372
377,0.76933574,-0.038560867,0.017562376,-0.028176159
378,0.77133577,-0.036117408,0.012675454,-0.034284811
379,0.77333577,-0.034284811,0.0059559359,-0.03733914
380,0.77533577,-0.031230485,0.0010690142,-0.042836927
381,0.77733574,-0.028787024,-0.0032070426,-0.050167307
382,0.77933664,-0.026343564,-0.0074830991,-0.050778173
383,0.7813375,-0.028176159,-0.016646078,-0.05627596
384,0.78333837,-0.022678372,-0.02397646,-0.058719423
385,0.78533923,-0.023900103,-0.028252518,-0.062995479
386,0.78734007,-0.019013181,-0.033750303,-0.066049807
387,0.78934007,-0.019624045,-0.04352415,-0.070325859
388,0.79134007,-0.017180584,-0.047800206,-0.069104128
389,0.7933401,-0.015347989,-0.056963183,-0.07154759
390,0.79534013,-0.015958855,-0.066737026,-0.073991053
391,0.79734017,-0.014126259,-0.072845683,-0.07582365
392,0.7993395,-0.0098502021,-0.076510869,-0.07582365
393,0.80133867,-0.012293663,-0.08200866,-0.07582365
394,0.80333873,-0.012293663,-0.091171637,-0.074601918
395,0.80533876,-0.010461068,-0.098502018,-0.076434515
396,0.80733876,-0.0086284718,-0.10522154,-0.074601918
397,0.80933876,-0.0086284718,-0.11255192,-0.075212784
398,0.81133876,-0.0049632802,-0.11927144,-0.073991053
399,0.81333876,-0.0037415496,-0.12354749,-0.070936725
400,0.81533876,-0.0012980887,-0.13209961,-0.07154759
401,0.81733876,-0.0037415496,-0.14248432,-0.07154759
402,0.81933963,-0.0025198192,-0.14553864,-0.069104128
403,0.82134046,-0.0012980887,-0.15286903,-0.067882404
404,0.8233413,0.0023671028,-0.16264287,-0.06421721
405,0.82913681,0.0005345071,-0.1638646,-0.064828075
406,0.83113764,0.0048105638,-0.17363845,-0.062384613
407,0.83313761,0.007254025,-0.17241672,-0.062384613
408,0.83513757,0.0090866201,-0.17486018,-0.058719423
409,0.83713754,0.012751812,-0.1779145,-0.056886826
410,0.8391375,0.018249599,-0.18157969,-0.05627596
411,0.8411375,0.021914791,-0.18341228,-0.05261077
412,0.84313664,0.025579982,-0.18280143,-0.053832501
413,0.84513577,0.030466905,-0.18219055,-0.050167307
414,0.84713577,0.032910366,-0.1797471,-0.050167307
415,0.84913577,0.034742963,-0.1797471,-0.046502117
416,0.8511358,0.038408153,-0.18157969,-0.045280386
417,0.85313584,0.039629884,-0.1797471,-0.04100433
418,0.85513587,0.04024075,-0.1797471,-0.041615196
419,0.85713587,0.043295074,-0.18096884,-0.03733914
420,0.85913584,0.044516806,-0.18035796,-0.036728274
421,0.8611358,0.045738537,-0.18402316,-0.028787024
422,0.86313587,0.044516806,-0.18280143,-0.030008756
423,0.8651367,0.044516806,-0.18463401,-0.027565295
424,0.86713663,0.043295074,-0.18646662,-0.026343564
425,0.86913577,0.042073343,-0.18768835,-0.019624045
426,0.87113577,0.040851612,-0.18952094,-0.015958855
427,0.87313577,0.040851612,-0.19440787,-0.015347989
428,0.8751358,0.039019018,-0.19807306,-0.012293663
429,0.87713583,0.039019018,-0.20295998,-0.0092393365
430,0.87913587,0.036575556,-0.20723604,-0.0080176061
431,0.8811359,0.033521231,-0.21273382,-7.6358156e-05
432,0.88313506,0.033521231,-0.21700987,0.0017562376
433,0.88513423,0.028023442,-0.22800545,0.0084757553
434,0.8871334,0.021914791,-0.23533584,0.0096974857
435,0.88913253,0.018249599,-0.23716843,0.010919216
436,0.89113253,0.018249599,-0.23839016,0.0090866201
437,0.89313163,0.02069306,-0.24083363,0.007254025
438,0.89513163,0.02069306,-0.23777929,0.007254025
439,0.89713163,0.024969118,-0.23350324,0.0041996986
440,0.89913163,0.026190847,-0.23228151,0.0023671028
441,0.90113163,0.027412578,-0.22678372,0.002977968
442,0.90313246,0.028634308,-0.22311853,0.0017562376
443,0.9051333,0.026801713,-0.21334469,0.0017562376
444,0.90713326,0.026190847,-0.21029036,-0.0031306844
445,0.90913323,0.027412578,-0.19990565,-0.0080176061
446,0.91113319,0.026190847,-0.18768835,-0.0098502021
447,0.91313316,0.026801713,-0.18035796,-0.011682798
448,0.91513313,0.026801713,-0.17058411,-0.015347989
449,0.91713309,0.026801713,-0.16081028,-0.018402316
450,0.91913309,0.024969118,-0.15592335,-0.019624045
451,0.92113312,0.024969118,-0.14859296,-0.018402316
452,0.92313302,0.02069306,-0.14370605,-0.020845776
453,0.92513219,0.021303926,-0.1375974,-0.023900103
454,0.92713136,0.018860465,-0.13087788,-0.025121834
455,0.92913136,0.017027868,-0.1253801,-0.022678372
456,0.93113052,0.016417004,-0.11988231,-0.025121834
457,0.93313056,0.015195273,-0.11560625,-0.023900103
458,0.93513056,0.015195273,-0.11560625,-0.023900103
459,0.93713052,0.013973542,-0.11316279,-0.023900103
460,0.93913049,0.014584408,-0.10461067,-0.022678372
461,0.94113045,0.013973542,-0.10338894,-0.023289237
462,0.94313129,0.015806139,-0.099723749,-0.023900103
463,0.94513212,0.0096974857,-0.094836831,-0.021456642
464,0.94713295,0.0096974857,-0.093004234,-0.021456642
465,0.94913382,0.0066431593,-0.086895578,-0.01779145
466,0.95113382,0.0054214289,-0.082619525,-0.017180584
467,0.95313472,0.0054214289,-0.082619525,-0.01779145
468,0.95513472,0.002977968,-0.080786929,-0.015958855
469,0.95713472,0.0005345071,-0.078343466,-0.014737124
470,0.95913472,0.0005345071,-0.0777326,-0.015958855
471,0.96113472,-7.6358156e-05,-0.0777326,-0.014737124
472,0.96313385,0.0005345071,-0.075900003,-0.013515393
473,0.96513298,-7.6358156e-05,-0.075900003,-0.014126259
474,0.96713215,-0.00068722339,-0.076510869,-0.013515393
475,0.96913132,-0.00068722339,-0.077121735,-0.014737124
476,0.97113048,-0.00068722339,-0.078343466,-0.015958855
477,0.97313052,-7.6358156e-05,-0.078343466,-0.015347989
478,0.97513058,0.0011453723,-0.082619525,-0.017180584
479,0.97713065,0.0023671028,-0.084452122,-0.01779145
480,0.97913068,0.0017562376,-0.083841257,-0.017180584
481,0.98113068,0.002977968,-0.084452122,-0.020845776
482,0.98313155,0.0048105638,-0.083841257,-0.019013181
483,0.98513238,0.0048105638,-0.083841257,-0.01779145
484,0.98713321,0.0054214289,-0.085062988,-0.020845776
485,0.98913404,0.0054214289,-0.083230391,-0.021456642
486,0.99113488,0.0048105638,-0.08200866,-0.023900103
487,0.99313484,0.0035888334,-0.079565197,-0.024510968
488,0.99513481,0.0023671028,-0.078343466,-0.024510968
489,0.99713481,0.0017562376,-0.074067414,-0.025121834
490,0.99913484,0.0035888334,-0.07040222,-0.024510968
491,1.0011349,0.0017562376,-0.069180489,-0.025121834
492,1.003134,0.0005345071,-0.063682705,-0.022678372
493,1.0051341,0.0011453723,-0.05879578,-0.021456642
494,1.0071341,0.0017562376,-0.056963183,-0.022678372
495,1.0091341,0.0017562376,-0.055741455,-0.020234911
496,1.0111342,0.0005345071,-0.050243668,-0.018402316
497,1.0131342,0.0005345071,-0.049021937,-0.016569721
498,1.0151342,0.002977968,-0.04718934,-0.016569721
499,1.0171342,0.0017562376,-0.046578474,-0.014126259
500,1.0191342,0.002977968,-0.046578474,-0.014737124
501,1.0211342,0.0017562376,-0.042302419,-0.013515393
502,1.0231359,0.0011453723,-0.04352415,-0.012904529
503,1.0251368,0.0011453723,-0.040469822,-0.011682798
504,1.0271376,0.0011453723,-0.036804631,-0.012293663
505,1.0291385,-0.0019089539,-0.028252518,-0.011682798
506,1.0311393,-0.0025198192,-0.017256944,-0.014126259
507,1.0331393,-0.0019089539,-0.016035212,-0.017180584
508,1.0351392,-0.0055741454,-0.0044287732,-0.014737124
509,1.0371391,-0.0037415496,0.00045814895,-0.015347989
510,1.0391391,-0.0049632802,0.013897184,-0.020234911
511,1.0411391,-0.004352415,0.026725354,-0.021456642
512,1.0431382,-0.0055741454,0.02977968,-0.022067508
513,1.0451373,-0.004352415,0.038942661,-0.025732698
514,1.0471365,-0.0049632802,0.042607851,-0.026343564
515,1.0491365,-0.0019089539,0.046883907,-0.028787024
516,1.0511366,-0.0012980887,0.048716504,-0.028176159
517,1.0531366,0.0017562376,0.050549097,-0.028787024
518,1.0551366,-0.00068722339,0.05299256,-0.028176159
519,1.0571367,0.0041996986,0.046883907,-0.02939789
520,1.0591367,0.007254025,0.045662176,-0.026954429
521,1.0611366,0.0048105638,0.038331795,-0.028176159
522,1.0631375,0.0078648897,0.037110064,-0.025732698
523,1.0651374,0.0084757553,0.032834008,-0.026343564
524,1.0671374,0.0084757553,0.029168816,-0.025732698
525,1.0691374,0.0078648897,0.02611449,-0.023289237
526,1.0711373,0.0090866201,0.017562376,-0.022067508
527,1.0731373,0.010919216,0.015729779,-0.022678372
528,1.0751373,0.012140946,0.012064588,-0.023900103
529,1.0771373,0.014584408,0.0071776668,-0.021456642
530,1.0791374,0.013362677,0.0077885319,-0.022067508
531,1.0811374,0.015195273,0.0071776668,-0.021456642
532,1.0831357,0.015806139,0.0053450707,-0.019624045
533,1.0851349,0.018860465,0.0083993971,-0.015958855
534,1.087134,0.018249599,0.0096211275,-0.017180584
535,1.0891332,0.018249599,0.013286319,-0.019624045
536,1.0911332,0.022525655,0.020616703,-0.020234911
537,1.0931332,0.020082194,0.022449298,-0.019624045
538,1.0951332,0.019471331,0.027947085,-0.020234911
539,1.0971332,0.021914791,0.033444874,-0.023900103
540,1.0991345,0.022525655,0.040164389,-0.024510968
541,1.1011345,0.023136521,0.046273042,-0.026954429
542,1.1031354,0.021914791,0.049938235,-0.025732698
543,1.1051362,0.021303926,0.05299256,-0.026954429
544,1.1071371,0.021303926,0.056046885,-0.030008756
545,1.109137,0.020082194,0.062766403,-0.02939789
546,1.111137,0.022525655,0.067042463,-0.031230485
547,1.113137,0.02069306,0.070707649,-0.030619621
548,1.1151369,0.017638734,0.074372843,-0.030619621
549,1.1171369,0.014584408,0.077427171,-0.028176159
550,1.1191369,0.014584408,0.079870634,-0.026954429
551,1.1211369,0.0090866201,0.088422745,-0.025121834
552,1.123136,0.0084757553,0.090866208,-0.023289237
553,1.1251352,0.007254025,0.092698798,-0.022067508
554,1.1271343,0.0017562376,0.095753126,-0.023289237
555,1.1291335,-0.0012980887,0.10125092,-0.019624045
556,1.1311335,-0.0037415496,0.10430524,-0.016569721
557,1.1331336,-0.0061850105,0.10980303,-0.017180584
558,1.1351336,-0.0098502021,0.11346822,-0.015347989
559,1.1371336,-0.012293663,0.11835514,-0.013515393
560,1.1391335,-0.013515393,0.12018774,-0.013515393
561,1.1411335,-0.014126259,0.12629639,-0.014737124
562,1.1431343,-0.014737124,0.13118331,-0.012293663
563,1.1451352,-0.015958855,0.13423763,-0.011682798
564,1.147136,-0.01779145,0.14401148,-0.010461068
565,1.1491368,-0.014737124,0.15012014,-0.011071933
566,1.1511368,-0.016569721,0.15806139,-0.0092393365
567,1.1531368,-0.014737124,0.16966783,-0.0067958757
568,1.1551368,-0.014126259,0.17150041,-0.0049632802
569,1.1571369,-0.011071933,0.18127427,-0.004352415
570,1.1591356,-0.0098502021,0.19043724,-0.0031306844
571,1.1611356,-0.0080176061,0.19898935,-7.6358156e-05
572,1.1631349,-0.0074067409,0.20387627,0.0011453723
573,1.165134,-0.0067958757,0.21059579,0.0035888334
574,1.1671332,-0.0061850105,0.21120666,0.0035888334
575,1.1691324,-0.0061850105,0.21731532,0.010308351
576,1.1711315,-0.0074067409,0.21914791,0.012140946
577,1.1731315,-0.0080176061,0.2209805,0.013973542
578,1.1751315,-0.0086284718,0.22036964,0.018860465
579,1.1771315,-0.0092393365,0.21975878,0.022525655
580,1.1791315,-0.011682798,0.22036964,0.026801713
581,1.1811315,-0.014126259,0.2228131,0.029856039
582,1.1831322,-0.012904529,0.2228131,0.034742963
583,1.185133,-0.012904529,0.21975878,0.037797287
584,1.1871339,-0.012293663,0.21975878,0.04024075
585,1.1891347,-0.011682798,0.22159137,0.046960264
586,1.1911347,-0.014126259,0.22525656,0.050625458
587,1.1931346,-0.015347989,0.22525656,0.052458052
588,1.1951346,-0.016569721,0.22464569,0.051847186
589,1.1971346,-0.017180584,0.22342396,0.053679783
590,1.1991346,-0.019624045,0.22708915,0.056123246
591,1.2011346,-0.024510968,0.23136522,0.057344973
592,1.2031337,-0.024510968,0.23197608,0.054901514
593,1.2051338,-0.027565295,0.2350304,0.058566704
594,1.2071338,-0.031230485,0.23991732,0.056734111
595,1.2091338,-0.031230485,0.2405282,0.05551238
596,1.2111339,-0.032452215,0.24480425,0.054290649
597,1.2131339,-0.035506543,0.25030205,0.052458052
598,1.2151339,-0.037950002,0.2490803,0.049403727
599,1.2171339,-0.037950002,0.25335637,0.04757113
600,1.2191338,-0.039782599,0.25885415,0.04390594
601,1.2211338,-0.039171733,0.26374108,0.039019018
602,1.2231346,-0.041615196,0.26740626,0.037186421
603,1.2251354,-0.042836927,0.26984972,0.037797287
604,1.2271363,-0.04466952,0.27595839,0.032910366
605,1.2291371,-0.043447789,0.28084528,0.028634308
606,1.231138,-0.046502117,0.28512135,0.024358252
607,1.233138,-0.046502117,0.28451049,0.024358252
608,1.235138,-0.048945576,0.28878653,0.021914791
609,1.2371381,-0.048334714,0.28573221,0.021303926
610,1.2391381,-0.051999904,0.2930626,0.019471331
611,1.2411381,-0.055665094,0.28939742,0.017638734
612,1.2431375,-0.055054229,0.29000828,0.017638734
613,1.2451366,-0.055665094,0.28939742,0.018860465
614,1.2471367,-0.058719423,0.28695396,0.016417004
615,1.2491367,-0.059330288,0.2863431,0.015195273
616,1.2511367,-0.059330288,0.27901271,0.018860465
617,1.2531367,-0.061162882,0.27901271,0.02069306
618,1.2551367,-0.061162882,0.27718011,0.021303926
619,1.2571367,-0.062995479,0.27046058,0.022525655
620,1.2591367,-0.064828075,0.26801711,0.024358252
621,1.2611367,-0.066660672,0.26251933,0.025579982
622,1.2631375,-0.069714993,0.25885415,0.027412578
623,1.2651375,-0.070325859,0.25335637,0.027412578
624,1.2671373,-0.072158456,0.25030205,0.029856039
625,1.2691373,-0.072158456,0.24724771,0.029245174
626,1.2711372,-0.074601918,0.24541511,0.029856039
627,1.2731372,-0.076434515,0.24541511,0.033521231
628,1.2751372,-0.077045381,0.24602598,0.0322995
629,1.2771372,-0.076434515,0.25396723,0.028023442
630,1.2791372,-0.077045381,0.25579983,0.028023442
631,1.2811372,-0.078267112,0.26435193,0.023747386
632,1.2831365,-0.077045381,0.27046058,0.019471331
633,1.2851356,-0.077656247,0.27656925,0.018860465
634,1.2871348,-0.077656247,0.28817567,0.013362677
635,1.289134,-0.074601918,0.29856038,0.0090866201
636,1.291134,-0.074601918,0.31016684,0.0035888334
637,1.293134,-0.075212784,0.31627548,0.0005345071
638,1.295134,-0.074601918,0.33154711,-0.0037415496
639,1.297134,-0.072769322,0.33399057,-0.0055741454
640,1.2991339,-0.072769322,0.34315357,-0.010461068
641,1.3011339,-0.073380187,0.35414913,-0.014737124
642,1.3031344,-0.074601918,0.35903606,-0.015958855
643,1.3051352,-0.072769322,0.36758816,-0.01779145
644,1.3071352,-0.074601918,0.37430769,-0.018402316
645,1.3091352,-0.073991053,0.37491855,-0.021456642
646,1.3111352,-0.075212784,0.3828598,-0.022678372
647,1.3131353,-0.07582365,0.3846924,-0.022678372
648,1.3151353,-0.07582365,0.38713586,-0.023289237
649,1.3171353,-0.077045381,0.38896844,-0.022678372
650,1.3191354,-0.076434515,0.38896844,-0.023900103
651,1.3211359,-0.076434515,0.38591412,-0.021456642
652,1.3231351,-0.075212784,0.38530326,-0.01779145
653,1.3251342,-0.078877978,0.38224894,-0.017180584
654,1.3271335,-0.081321433,0.37675115,-0.013515393
655,1.3291326,-0.084375761,0.36758816,-0.0049632802
656,1.3311326,-0.08743009,0.35903606,-0.0012980887
657,1.3331326,-0.089262687,0.35414913,0.0005345071
658,1.3351326,-0.092927873,0.34437528,0.0023671028
659,1.3371326,-0.096593067,0.34009922,0.0054214289
660,1.3391326,-0.09903653,0.33826664,0.0054214289
661,1.3411325,-0.10209085,0.33582318,0.0054214289
662,1.3431333,-0.10025826,0.33337972,0.0090866201
663,1.3451341,-0.10025826,0.33460143,0.0090866201
664,1.3471349,-0.10025826,0.33460143,0.0078648897
665,1.3491366,-0.098425664,0.33399057,0.0078648897
666,1.3511366,-0.097814798,0.3388775,0.0090866201
667,1.3531365,-0.097203933,0.33826664,0.007254025
668,1.3551365,-0.098425664,0.33948836,0.0084757553
669,1.3571365,-0.099647395,0.33948836,0.0096974857
670,1.3591365,-0.097203933,0.33948836,0.0054214289
671,1.3611366,-0.09903653,0.33948836,0.0035888334
672,1.3631361,-0.10025826,0.33643404,0.0041996986
673,1.3651352,-0.096593067,0.33704489,0.0005345071
674,1.3671344,-0.097203933,0.33704489,0.0017562376
675,1.3691336,-0.095371336,0.33582318,-0.0019089539
676,1.3711328,-0.091095276,0.33826664,-0.0049632802
677,1.3731335,-0.090484418,0.3388775,-0.0067958757
678,1.3751335,-0.086208358,0.34009922,-0.0061850105
679,1.3771334,-0.081932299,0.34376442,-0.0086284718
680,1.3791334,-0.080710568,0.3407101,-0.010461068
681,1.3811328,-0.07582365,0.34865135,-0.011071933
682,1.3831337,-0.073991053,0.35048392,-0.012293663
683,1.3851345,-0.072769322,0.35231653,-0.011682798
684,1.3871354,-0.069104128,0.35537085,-0.014737124
685,1.3891362,-0.066049807,0.36147952,-0.014737124
686,1.3911367,-0.062384613,0.36147952,-0.015347989
687,1.3931367,-0.061162882,0.36147952,-0.015958855
688,1.3951367,-0.05627596,0.36392298,-0.015958855
689,1.3971367,-0.053832501,0.36209038,-0.016569721
690,1.3991367,-0.050778173,0.3633121,-0.013515393
691,1.4011367,-0.051389039,0.36270124,-0.011071933
692,1.4031358,-0.051389039,0.36270124,-0.011071933
693,1.405135,-0.051389039,0.35842517,-0.0049632802
694,1.407135,-0.053221636,0.35292739,-0.0031306844
695,1.4091342,-0.054443367,0.34926221,-0.00068722339
696,1.4111342,-0.054443367,0.34681875,0.002977968
697,1.4131343,-0.055665094,0.3388775,0.0041996986
698,1.4151343,-0.05627596,0.33826664,0.0035888334
699,1.4171343,-0.059941154,0.33399057,0.0054214289
700,1.4191343,-0.058108557,0.33093625,0.0090866201
701,1.4211343,-0.061773747,0.33093625,0.0096974857
702,1.4231351,-0.061773747,0.33276883,0.011530082
703,1.425136,-0.059941154,0.33276883,0.013973542
704,1.4271368,-0.061773747,0.33032539,0.013973542
705,1.4291376,-0.062384613,0.33582318,0.013973542
706,1.4311383,-0.061162882,0.33948836,0.015806139
707,1.4331376,-0.059941154,0.34254268,0.017638734
708,1.4351376,-0.058719423,0.34926221,0.018860465
709,1.4371377,-0.061773747,0.35292739,0.020082194
710,1.4391377,-0.061162882,0.35903606,0.022525655
711,1.4411377,-0.057497691,0.3651447,0.021303926
712,1.4431369,-0.055054229,0.37552941,0.021914791
713,1.4451361,-0.053832501,0.37736201,0.022525655
714,1.4471361,-0.049556442,0.38408151,0.024358252
715,1.4491361,-0.047723848,0.3914119,0.021914791
716,1.4511358,-0.040393464,0.39935315,0.019471331
717,1.4531358,-0.040393464,0.40179661,0.018860465
718,1.4551358,-0.035506543,0.40851614,0.017027868
719,1.4571358,-0.037950002,0.41157046,0.015806139
720,1.4591358,-0.034284811,0.42134431,0.015806139
721,1.4611358,-0.030619621,0.43356159,0.015806139
722,1.4631367,-0.031230485,0.43600506,0.017027868
723,1.4651375,-0.031841353,0.44516805,0.018860465
724,1.4671375,-0.026954429,0.45005497,0.016417004
725,1.4691374,-0.025732698,0.4549419,0.017027868
726,1.4711374,-0.023900103,0.46043968,0.018249599
727,1.4731374,-0.023289237,0.46654832,0.016417004
728,1.4751373,-0.019624045,0.46899179,0.016417004
729,1.4771373,-0.01779145,0.47143525,0.016417004
730,1.4791373,-0.012904529,0.47448957,0.016417004
731,1.4811373,-0.012293663,0.48059824,0.019471331
732,1.4831364,-0.010461068,0.48181996,0.017638734
733,1.4851356,-0.011071933,0.48181996,0.018860465
734,1.4871348,-0.0092393365,0.48548517,0.022525655
735,1.4891339,-0.0080176061,0.48792863,0.02069306
736,1.491134,-0.004352415,0.4897612,0.020082194
737,1.493134,-0.0049632802,0.49342641,0.023747386
738,1.495134,-0.0019089539,0.49281552,0.023747386
739,1.497134,-0.0031306844,0.49403727,0.023747386
740,1.499134,-7.6358156e-05,0.49586987,0.026190847
741,1.5011339,-7.6358156e-05,0.50014591,0.029245174
742,1.5031348,-0.0019089539,0.5007568,0.029856039
743,1.5051356,-0.0037415496,0.50014591,0.034132097
744,1.5071356,-0.0061850105,0.50197852,0.034742963
745,1.5091355,-0.0080176061,0.50442195,0.037797287
746,1.5111355,-0.015347989,0.50808716,0.043295074
747,1.5131355,-0.015958855,0.50564373,0.045127671
748,1.5151355,-0.018402316,0.50625455,0.04757113
749,1.5171356,-0.025121834,0.50930887,0.05551238
750,1.5191356,-0.03306308,0.50930887,0.057344973
751,1.5211356,-0.033673946,0.51297408,0.062842764
752,1.5231348,-0.03733914,0.5160284,0.06345363
753,1.525134,-0.038560867,0.51725012,0.067729682
754,1.5271332,-0.040393464,0.5160284,0.069562279
755,1.5291323,-0.04466952,0.51541758,0.073838338
756,1.5311323,-0.049556442,0.51969361,0.075670935
757,1.5331323,-0.050778173,0.5184719,0.07811439
758,1.5351323,-0.053221636,0.52152622,0.077503525
759,1.5371323,-0.057497691,0.52335882,0.078725256
760,1.5391323,-0.058719423,0.52091533,0.07811439
761,1.5411323,-0.061162882,0.52458054,0.077503525
762,1.5431332,-0.065438941,0.52885658,0.079946987
763,1.545134,-0.066049807,0.52885658,0.078725256
764,1.5471348,-0.069714993,0.5319109,0.07811439
765,1.5491357,-0.069104128,0.52885658,0.077503525
766,1.5511356,-0.070936725,0.52335882,0.07506007
767,1.5531356,-0.072769322,0.51908273,0.073838338
768,1.5551356,-0.072769322,0.51297408,0.068951413
769,1.5571355,-0.076434515,0.50747633,0.069562279
770,1.5591355,-0.076434515,0.50197852,0.067118816
771,1.5611356,-0.078877978,0.49525899,0.061010167
772,1.5631347,-0.079488844,0.49403727,0.059788436
773,1.5651339,-0.081932299,0.48915035,0.060399301
774,1.5671331,-0.086208358,0.48487428,0.05917757
775,1.5691322,-0.085597493,0.48426342,0.056123246
776,1.5711316,-0.08743009,0.48243082,0.053068917
777,1.5731316,-0.089262687,0.4812091,0.053679783
778,1.5751316,-0.089873552,0.48243082,0.051236324
779,1.5771316,-0.089262687,0.48365256,0.048792861
780,1.5791315,-0.089262687,0.48670688,0.050014593
781,1.5811315,-0.088040955,0.48365256,0.045738537
782,1.5831323,-0.088040955,0.4812091,0.043295074
783,1.5851331,-0.086208358,0.48609602,0.041462477
784,1.587134,-0.08315403,0.48548517,0.039019018
785,1.5891348,-0.080099702,0.49159381,0.037186421
786,1.5911348,-0.074601918,0.49220467,0.035353824
787,1.5931348,-0.074601918,0.49464813,0.031077769
788,1.5951349,-0.069104128,0.4989242,0.030466905
789,1.5971349,-0.069714993,0.49831334,0.0322995
790,1.5991349,-0.067271538,0.49831334,0.030466905
791,1.601135,-0.067882404,0.49953505,0.029856039
792,1.6031341,-0.068493262,0.4989242,0.031077769
793,1.6051342,-0.066049807,0.49586987,0.030466905
794,1.6071342,-0.069104128,0.49403727,0.034132097
795,1.6091342,-0.068493262,0.49098295,0.033521231
796,1.6111342,-0.070325859,0.49098295,0.038408153
797,1.6131342,-0.07154759,0.49037206,0.042073343
798,1.6151342,-0.072769322,0.48915035,0.042073343
799,1.6171343,-0.075212784,0.49037206,0.044516806
800,1.6191343,-0.076434515,0.49281552,0.04757113
801,1.6211343,-0.079488844,0.49464813,0.051847186
802,1.6231351,-0.081932299,0.49464813,0.053679783
803,1.6251359,-0.080710568,0.49831334,0.05551238
804,1.6271368,-0.083764896,0.50197852,0.05551238
805,1.6291376,-0.081932299,0.5007568,0.05917757
806,1.6311383,-0.081932299,0.50136763,0.059788436
807,1.6331382,-0.085597493,0.4989242,0.061010167
808,1.6351382,-0.08743009,0.49464813,0.061010167
809,1.6371382,-0.089873552,0.4897612,0.062231898
810,1.6391382,-0.092927873,0.48731774,0.06345363
811,1.6411383,-0.095371336,0.47876564,0.062842764
812,1.6431375,-0.095982201,0.47632217,0.064675361
813,1.6451367,-0.095982201,0.47448957,0.065897085
814,1.6471367,-0.098425664,0.46960264,0.064675361
815,1.6491368,-0.10086913,0.46654832,0.064675361
816,1.6511368,-0.10270172,0.46838093,0.068340547
817,1.6531368,-0.10575604,0.46899179,0.067729682
818,1.6551368,-0.10819951,0.47021353,0.070173144
819,1.6571367,-0.10881037,0.46960264,0.068951413
820,1.6591367,-0.10942124,0.47082439,0.07078401
821,1.6611367,-0.11064297,0.47571132,0.069562279
822,1.6631375,-0.11491902,0.47510046,0.07078401
823,1.6651375,-0.11675162,0.47632217,0.071394876
824,1.6671374,-0.11675162,0.47937649,0.07078401
825,1.6691374,-0.11736248,0.4830417,0.068951413
826,1.6711375,-0.11858422,0.48609602,0.06345363
827,1.6731375,-0.11980595,0.49098295,0.05917757
828,1.6751375,-0.12102768,0.49281552,0.056734111
829,1.6771374,-0.11980595,0.49709159,0.049403727
830,1.6791375,-0.12041681,0.50136763,0.04390594
831,1.6811375,-0.11980595,0.50991976,0.037797287
832,1.6831367,-0.11736248,0.51114148,0.035353824
833,1.6851358,-0.11614075,0.51786101,0.027412578
834,1.687135,-0.11552989,0.52091533,0.026190847
835,1.6891341,-0.11308643,0.52824575,0.019471331
836,1.6911341,-0.11430816,0.53435439,0.015806139
837,1.6931341,-0.1118647,0.53618699,0.015195273
838,1.6951341,-0.11308643,0.54229563,0.012140946
839,1.6971341,-0.11308643,0.54840428,0.011530082
840,1.6991341,-0.11247557,0.55084771,0.011530082
841,1.701134,-0.11247557,0.55756724,0.010919216
842,1.7031348,-0.11308643,0.56123245,0.013973542
843,1.7051356,-0.11369729,0.56123245,0.013973542
844,1.7071356,-0.11369729,0.56428677,0.013362677
845,1.7091355,-0.11491902,0.56795198,0.017638734
846,1.7111355,-0.11491902,0.56489766,0.019471331
847,1.7131355,-0.1118647,0.56123245,0.021914791
848,1.7151355,-0.11430816,0.55756724,0.025579982
849,1.7171355,-0.11247557,0.55695641,0.028634308
850,1.7191355,-0.11614075,0.54901516,0.031077769
851,1.7211356,-0.1118647,0.53740871,0.03596469
852,1.7231347,-0.11247557,0.52824575,0.04024075
853,1.7251339,-0.11430816,0.52213705,0.042073343
854,1.7271331,-0.11797335,0.52213705,0.043295074
855,1.7291322,-0.12469286,0.5203045,0.039629884
856,1.7311322,-0.12835807,0.51786101,0.041462477
857,1.7331322,-0.13263412,0.5203045,0.04024075
858,1.7351322,-0.13568844,0.51969361,0.039629884
859,1.7371321,-0.13568844,0.5160284,0.039019018
860,1.7391321,-0.13691017,0.5141958,0.036575556
861,1.7411321,-0.13568844,0.51053065,0.039019018
862,1.7431329,-0.13629931,0.50930887,0.038408153
863,1.7451337,-0.13263412,0.50503284,0.04024075
864,1.7471346,-0.12774719,0.49648073,0.042073343
865,1.7491355,-0.1259146,0.4830417,0.046349399
866,1.7511355,-0.12347114,0.46715918,0.051236324
867,1.7531356,-0.12774719,0.45555276,0.05917757
868,1.7551356,-0.13446671,0.4549419,0.062842764
869,1.7571356,-0.14118622,0.44944412,0.057955839
870,1.7591357,-0.13996451,0.44700065,0.056734111
871,1.7611357,-0.14057536,0.45127669,0.054290649
872,1.7631349,-0.1381319,0.45433104,0.054290649
873,1.765134,-0.13752104,0.4616614,0.051236324
874,1.7671331,-0.13324498,0.472657,0.04390594
875,1.7691323,-0.1295798,0.48059824,0.042073343
876,1.7711314,-0.12286028,0.49586987,0.029245174
877,1.7731314,-0.11919508,0.5007568,0.028023442
878,1.7751314,-0.11858422,0.50686544,0.028023442
879,1.7771314,-0.11125384,0.5141958,0.019471331
880,1.7791313,-0.10514518,0.52091533,0.018860465
881,1.7811313,-0.10025826,0.52580225,0.015806139
882,1.783132,-0.10025826,0.52946746,0.012751812
883,1.7851329,-0.096593067,0.53130007,0.015806139
884,1.7871337,-0.09476047,0.53252178,0.018860465
885,1.7891345,-0.092927873,0.53435439,0.02069306
886,1.7911345,-0.090484418,0.53496522,0.024969118
887,1.7931345,-0.091095276,0.53252178,0.031688634
888,1.7951345,-0.088651821,0.53130007,0.032910366
889,1.7971345,-0.088040955,0.52702397,0.039629884
890,1.7991346,-0.089262687,0.52458054,0.041462477
891,1.8011343,-0.083764896,0.52091533,0.045738537
892,1.8031335,-0.081932299,0.5141958,0.051236324
893,1.8051335,-0.079488844,0.5123632,0.056123246
894,1.8071336,-0.077656247,0.51053065,0.057955839
895,1.8091336,-0.07582365,0.50808716,0.062231898
896,1.8111335,-0.072769322,0.50808716,0.067118816
897,1.8131335,-0.070325859,0.50747633,0.068340547
898,1.8151335,-0.067882404,0.50503284,0.071394876
899,1.8171334,-0.067882404,0.5025894,0.07506007
900,1.8191334,-0.062995479,0.4989242,0.076281801
901,1.8211334,-0.059941154,0.49770245,0.077503525
902,1.8231342,-0.057497691,0.49648073,0.078725256
903,1.8251351,-0.05627596,0.48915035,0.079946987
904,1.827136,-0.053221636,0.48731774,0.076892659
905,1.8291369,-0.05261077,0.4830417,0.075670935
906,1.8311378,-0.048334714,0.47937649,0.073838338
907,1.8331378,-0.045280386,0.47571132,0.070173144
908,1.8351378,-0.04466952,0.47387871,0.069562279
909,1.8371379,-0.044058654,0.47021353,0.065897085
910,1.8391379,-0.030619621,0.42317688,0.08239045
911,1.8411379,-0.0012980887,0.35048392,0.091553427
912,1.8431372,0.0017562376,0.35475999,0.088499099
913,1.8451363,-0.0092393365,0.39202276,0.072616607
914,1.8471363,-0.017180584,0.40485093,0.067729682
915,1.8491363,-0.024510968,0.43356159,0.05917757
916,1.8511363,-0.030619621,0.44516805,0.052458052
917,1.8531363,-0.031841353,0.44944412,0.04757113
918,1.8551363,-0.031230485,0.45066583,0.035353824
919,1.8571362,-0.026343564,0.44883323,0.024969118
920,1.8591362,-0.023900103,0.44822237,0.02069306
921,1.8611364,-0.020234911,0.44761151,0.010919216
922,1.8631373,-0.015347989,0.44761151,0.0035888334
923,1.8651372,-0.014737124,0.44761151,0.0011453723
924,1.8671372,-0.010461068,0.44700065,-0.0067958757
925,1.8691372,-0.0092393365,0.44577891,-0.012904529
926,1.8711372,-0.0086284718,0.44700065,-0.014126259
927,1.8731363,-0.0098502021,0.44516805,-0.015958855
928,1.8751363,-0.010461068,0.43600506,-0.017180584
929,1.8771364,-0.011071933,0.4353942,-0.019013181
930,1.8791364,-0.0092393365,0.42256603,-0.023900103
931,1.8811364,0.0023671028,0.36942077,-0.011071933
932,1.8831356,0.014584408,0.33460143,-0.0055741454
933,1.8851348,0.017638734,0.3211624,-0.0037415496
934,1.8871339,0.013362677,0.32910365,0.0023671028
935,1.889133,0.0005345071,0.34804046,0.007254025
936,1.891133,-0.0061850105,0.3633121,0.0066431593
937,1.8931329,-0.011682798,0.36819902,0.0060322941
938,1.8951329,-0.011682798,0.35353827,0.0048105638
939,1.8971329,-0.024510968,0.33582318,-7.6358156e-05
940,1.8991328,-0.032452215,0.33032539,-0.0061850105
941,1.9011328,-0.049556442,0.32299501,-0.014737124
942,1.903134,-0.055665094,0.32482758,-0.014126259
943,1.9051349,-0.059330288,0.32849279,-0.0098502021
944,1.9071349,-0.062384613,0.32727104,-0.0055741454
945,1.909135,-0.058108557,0.3016147,0.0054214289
946,1.911135,-0.053221636,0.28206703,0.007254025
947,1.913135,-0.054443367,0.28328875,0.0054214289
948,1.9151351,-0.06421721,0.29245174,-0.0025198192
949,1.9171351,-0.070325859,0.29978213,-0.004352415
950,1.9191351,-0.082543164,0.3126103,-0.0092393365
951,1.9211351,-0.091706142,0.33215797,-0.016569721
952,1.9231343,-0.095982201,0.34376442,-0.020234911
953,1.9251334,-0.10514518,0.35781431,-0.022678372
954,1.9271325,-0.1100321,0.37064248,-0.022067508
955,1.9291317,-0.10942124,0.37675115,-0.023289237
956,1.9311317,-0.11064297,0.38347065,-0.027565295
957,1.9331325,-0.10942124,0.3828598,-0.02939789
958,1.9351325,-0.10881037,0.3828598,-0.032452215
959,1.9371325,-0.10942124,0.38652498,-0.032452215
960,1.9391324,-0.10453431,0.38835758,-0.033673946
961,1.9411324,-0.10636691,0.39080104,-0.036117408
962,1.9431332,-0.10514518,0.39202276,-0.034284811
963,1.9451341,-0.10270172,0.38774672,-0.03733914
964,1.9471349,-0.10025826,0.38835758,-0.034895677
965,1.9491358,-0.10025826,0.38530326,-0.035506543
966,1.9511358,-0.10147999,0.38530326,-0.038560867
967,1.9531358,-0.10147999,0.38652498,-0.037950002
968,1.9551358,-0.10147999,0.38530326,-0.040393464
969,1.9571359,-0.10025826,0.38530326,-0.043447789
970,1.9591359,-0.10025826,0.3828598,-0.042836927
971,1.9611359,-0.097203933,0.37858373,-0.045280386
972,1.9631348,-0.095982201,0.37247509,-0.048945576
973,1.9651339,-0.092927873,0.36636642,-0.051999904
974,1.967133,-0.093538739,0.35781431,-0.048945576
975,1.9691321,-0.090484418,0.33154711,-0.042226061
976,1.9711312,-0.045891251,0.21792617,-0.019624045
977,1.9731308,-0.032452215,0.182496,-0.016569721
978,1.9751307,-0.030008756,0.14095716,-0.016569721
979,1.9771307,-0.036117408,0.13607024,-0.020234911
980,1.9791307,-0.049556442,0.15378532,-0.032452215
981,1.9811307,-0.067882404,0.18188512,-0.042836927
982,1.9831316,-0.077045381,0.19776763,-0.048945576
983,1.9851321,-0.093538739,0.22586742,-0.055665094
984,1.987133,-0.10209085,0.24602598,-0.059330288
985,1.9891339,-0.10575604,0.25518894,-0.056886826
986,1.9911339,-0.10697778,0.25579983,-0.055054229
987,1.9931339,-0.10514518,0.25335637,-0.057497691
988,1.995134,-0.10392345,0.25274551,-0.056886826
989,1.997134,-0.098425664,0.2509129,-0.058719423
990,1.999134,-0.093538739,0.2509129,-0.062384613
991,2.001134,-0.089873552,0.24785857,-0.066049807
992,2.0031331,-0.088651821,0.24663684,-0.067882404
993,2.0051322,-0.086819224,0.24297164,-0.069104128
994,2.0071322,-0.081932299,0.24358252,-0.072158456
995,2.0091322,-0.077656247,0.24174993,-0.077656247
996,2.0111322,-0.073380187,0.24113905,-0.08315403
997,2.0131322,-0.073991053,0.24174993,-0.085597493
998,2.0151321,-0.070325859,0.24480425,-0.089873552
999,2.0171321,-0.068493262,0.23991732,-0.093538739
1000,2.0191321,-0.068493262,0.23808473,-0.094149604
1001,2.021132,-0.066049807,0.23319781,-0.099647395
1002,2.0231329,-0.063606344,0.22831088,-0.099647395
1003,2.0251337,-0.038560867,0.15745051,-0.080099702
1004,2.0271346,-0.0067958757,0.074983709,-0.067271538
1005,2.0291354,-0.0031306844,0.049938235,-0.065438941
1006,2.0311363,-0.011071933,0.035277467,-0.058719423
1007,2.0331368,-0.01779145,0.048105638,-0.059941154
1008,2.0351368,-0.031230485,0.068875059,-0.062995479
1009,2.0371368,-0.049556442,0.11102476,-0.070325859
1010,2.0391369,-0.069714993,0.14645495,-0.086208358
1011,2.0411369,-0.081932299,0.17088956,-0.096593067
1012,2.043136,-0.084986627,0.17211129,-0.096593067
1013,2.0451355,-0.085597493,0.16355917,-0.095982201
1014,2.0471355,-0.084375761,0.15683965,-0.093538739
1015,2.0491354,-0.086819224,0.14645495,-0.085597493
1016,2.0511354,-0.089873552,0.13912456,-0.077656247
1017,2.0531354,-0.088651821,0.13057245,-0.070936725
1018,2.0551353,-0.093538739,0.11835514,-0.06421721
1019,2.0571353,-0.097814798,0.10735957,-0.055054229
1020,2.0591353,-0.099647395,0.097585723,-0.051389039
1021,2.0611353,-0.10514518,0.089644477,-0.040393464
1022,2.0631362,-0.10514518,0.084146686,-0.036728274
1023,2.0651371,-0.10636691,0.082924955,-0.036117408
1024,2.0671371,-0.10881037,0.080481499,-0.033673946
1025,2.0691371,-0.1100321,0.078648902,-0.030619621
1026,2.0711371,-0.10881037,0.074372843,-0.030619621
1027,2.0731371,-0.10942124,0.073761977,-0.030008756
1028,2.0751371,-0.10697778,0.077427171,-0.032452215
1029,2.0771371,-0.10697778,0.077427171,-0.031230485
1030,2.0791372,-0.10392345,0.078038037,-0.037950002
1031,2.0811372,-0.10086913,0.081703223,-0.045280386
1032,2.0831364,-0.10209085,0.084146686,-0.049556442
1033,2.0851355,-0.095982201,0.084146686,-0.058108557
1034,2.0871347,-0.092317007,0.085979283,-0.060552016
1035,2.0891339,-0.093538739,0.087201014,-0.058108557
1036,2.0911339,-0.091095276,0.085979283,-0.057497691
1037,2.0931334,-0.089262687,0.08781188,-0.053832501
1038,2.0951334,-0.088040955,0.087201014,-0.053832501
1039,2.0971334,-0.090484418,0.085368417,-0.050778173
1040,2.0991333,-0.089262687,0.084146686,-0.04466952
1041,2.1011333,-0.088040955,0.074983709,-0.038560867
1042,2.1031341,-0.088651821,0.071318515,-0.03306308
1043,2.105135,-0.083764896,0.068875059,-0.026954429
1044,2.107135,-0.084986627,0.066431597,-0.020845776
1045,2.109135,-0.084375761,0.059101213,-0.017180584
1046,2.1111351,-0.08315403,0.055436023,-0.014126259
1047,2.1131351,-0.081932299,0.054825157,-0.012293663
1048,2.1151351,-0.081321433,0.050549097,-0.015347989
1049,2.1171352,-0.080099702,0.049938235,-0.019624045
1050,2.1191352,-0.080099702,0.045662176,-0.020234911
1051,2.1211352,-0.076434515,0.044440448,-0.023900103
1052,2.1231344,-0.07582365,0.042607851,-0.025732698
1053,2.1251335,-0.075212784,0.042607851,-0.030008756
1054,2.1271327,-0.070936725,0.04138612,-0.031230485
1055,2.1291318,-0.066660672,0.042607851,-0.031230485
1056,2.1311309,-0.064828075,0.043218717,-0.035506543
1057,2.1331309,-0.062384613,0.043218717,-0.036117408
1058,2.1351309,-0.062384613,0.047494773,-0.031841353
1059,2.1371309,-0.063606344,0.048716504,-0.032452215
1060,2.1391309,-0.058108557,0.04932737,-0.027565295
1061,2.1411316,-0.059330288,0.051159963,-0.022678372
1062,2.1431324,-0.059941154,0.050549097,-0.021456642
1063,2.1451332,-0.059330288,0.04932737,-0.01779145
1064,2.1471341,-0.059330288,0.046883907,-0.013515393
1065,2.1491349,-0.058108557,0.046883907,-0.014737124
1066,2.1511349,-0.058719423,0.043829583,-0.014126259
1067,2.1531353,-0.05627596,0.043829583,-0.012293663
1068,2.1551353,-0.05627596,0.046273042,-0.012293663
1069,2.1571353,-0.053221636,0.046273042,-0.015347989
1070,2.1591354,-0.053832501,0.047494773,-0.014126259
1071,2.1611354,-0.050167307,0.049938235,-0.015958855
1072,2.1631346,-0.047723848,0.049938235,-0.017180584
1073,2.1651337,-0.047112983,0.050549097,-0.017180584
1074,2.1671329,-0.045891251,0.053603426,-0.017180584
1075,2.169132,-0.045280386,0.057268616,-0.015958855
1076,2.1711311,-0.045891251,0.058490347,-0.014737124
1077,2.1731311,-0.048334714,0.059101213,-0.013515393
1078,2.1751311,-0.050778173,0.055436023,-0.015958855
1079,2.177131,-0.05261077,0.057879481,-0.014126259
1080,2.179131,-0.055665094,0.054214291,-0.014126259
1081,2.181131,-0.057497691,0.053603426,-0.016569721
1082,2.1831322,-0.05627596,0.050549097,-0.015347989
1083,2.185133,-0.061162882,0.049938235,-0.016569721
1084,2.1871339,-0.063606344,0.049938235,-0.017180584
1085,2.1891348,-0.062384613,0.046883907,-0.017180584
1086,2.1911357,-0.062995479,0.046273042,-0.014126259
1087,2.1931358,-0.062384613,0.048105638,-0.015958855
1088,2.1951358,-0.058719423,0.050549097,-0.015958855
1089,2.1971358,-0.058719423,0.057879481,-0.014126259
1090,2.1991359,-0.058108557,0.06093381,-0.015958855
1091,2.2011352,-0.053832501,0.067653328,-0.015958855
1092,2.2031343,-0.055665094,0.068875059,-0.015347989
1093,2.2051343,-0.054443367,0.079259768,-0.016569721
1094,2.2071341,-0.05261077,0.081703223,-0.016569721
1095,2.2091341,-0.050167307,0.092698798,-0.019624045
1096,2.2111341,-0.050167307,0.093920529,-0.019013181
1097,2.2131341,-0.048334714,0.095753126,-0.019013181
1098,2.2151341,-0.047112983,0.10552697,-0.022678372
1099,2.217134,-0.050167307,0.12018774,-0.022067508
1100,2.219134,-0.046502117,0.12202033,-0.023289237
1101,2.221134,-0.04100433,0.13057245,-0.023289237
1102,2.2231344,-0.039171733,0.13668109,-0.019624045
1103,2.2251352,-0.036117408,0.13973543,-0.01779145
1104,2.227136,-0.035506543,0.14278975,-0.015347989
1105,2.2291369,-0.033673946,0.13912456,-0.010461068
1106,2.2311377,-0.034284811,0.13240504,-0.0055741454
1107,2.2331378,-0.036117408,0.13057245,-0.0055741454
1108,2.2351378,-0.03733914,0.1244638,0.0005345071
1109,2.2371378,-0.039171733,0.12018774,0.0035888334
1110,2.2391379,-0.039171733,0.11285736,0.0078648897
1111,2.2411379,-0.039782599,0.10308351,0.012751812
1112,2.2431367,-0.040393464,0.098807454,0.016417004
1113,2.2451359,-0.037950002,0.093920529,0.019471331
1114,2.2471361,-0.040393464,0.089644477,0.02069306
1115,2.249136,-0.036728274,0.08781188,0.023747386
1116,2.251136,-0.037950002,0.089644477,0.024969118
1117,2.253136,-0.031841353,0.091477074,0.026190847
1118,2.2551359,-0.03306308,0.093309663,0.028023442
1119,2.2571359,-0.026954429,0.09514226,0.029245174
1120,2.2591359,-0.024510968,0.10308351,0.031077769
1121,2.2611358,-0.023289237,0.10125092,0.025579982
1122,2.2631367,-0.022067508,0.10369437,0.026801713
1123,2.2651367,-0.021456642,0.1049161,0.028634308
1124,2.267137,-0.023900103,0.10369437,0.0322995
1125,2.269137,-0.023900103,0.10186178,0.035353824
1126,2.271137,-0.023900103,0.09941832,0.039019018
1127,2.2731371,-0.025121834,0.096974857,0.040851612
1128,2.2751371,-0.026954429,0.098807454,0.039019018
1129,2.2771371,-0.028787024,0.098807454,0.037797287
1130,2.2791372,-0.02939789,0.098807454,0.038408153
1131,2.2811372,-0.031841353,0.098196588,0.036575556
1132,2.2831367,-0.032452215,0.098807454,0.037797287
1133,2.2851358,-0.033673946,0.097585723,0.035353824
1134,2.287135,-0.035506543,0.097585723,0.036575556
1135,2.2891341,-0.034284811,0.10186178,0.038408153
1136,2.2911341,-0.034895677,0.10735957,0.042073343
1137,2.2931339,-0.03306308,0.10980303,0.041462477
1138,2.2951339,-0.032452215,0.11041389,0.042073343
1139,2.2971339,-0.027565295,0.11102476,0.042684209
1140,2.2991338,-0.030619621,0.11163563,0.04390594
1141,2.3011338,-0.02939789,0.10735957,0.042073343
1142,2.3031346,-0.028176159,0.1067487,0.04024075
1143,2.3051355,-0.03306308,0.10247265,0.04024075
1144,2.3071352,-0.032452215,0.098807454,0.041462477
1145,2.3091352,-0.032452215,0.096974857,0.038408153
1146,2.3111353,-0.034895677,0.089644477,0.039019018
1147,2.3131353,-0.037950002,0.085368417,0.039629884
1148,2.3151353,-0.037950002,0.080481499,0.03596469
1149,2.3171354,-0.043447789,0.076816306,0.035353824
1150,2.3191354,-0.043447789,0.076816306,0.034742963
1151,2.3211354,-0.04466952,0.07620544,0.031077769
1152,2.3231346,-0.042836927,0.074372843,0.029856039
1153,2.3251337,-0.045891251,0.074372843,0.032910366
1154,2.3271328,-0.045891251,0.076816306,0.029856039
1155,2.3291319,-0.045891251,0.081703223,0.030466905
1156,2.3311319,-0.045891251,0.089033611,0.029856039
1157,2.3331316,-0.044058654,0.090866208,0.029245174
1158,2.3351315,-0.042226061,0.09941832,0.024969118
1159,2.3371315,-0.040393464,0.10247265,0.028023442
1160,2.3391315,-0.038560867,0.11102476,0.028634308
1161,2.3411315,-0.034284811,0.11774427,0.028023442
1162,2.3431324,-0.036117408,0.12324207,0.026190847
1163,2.3451333,-0.035506543,0.13484851,0.028023442
1164,2.3471342,-0.032452215,0.14278975,0.023747386
1165,2.3491351,-0.034284811,0.14340061,0.021914791
1166,2.3511351,-0.033673946,0.14828753,0.021303926
1167,2.3531353,-0.031841353,0.15989397,0.018860465
1168,2.3551353,-0.032452215,0.15867224,0.018860465
1169,2.3571353,-0.02939789,0.16417004,0.017027868
1170,2.3591353,-0.028787024,0.16600263,0.017638734
1171,2.3611353,-0.027565295,0.16355917,0.017638734
1172,2.3631345,-0.026343564,0.16294831,0.019471331
1173,2.3651336,-0.025732698,0.15561792,0.018860465
1174,2.3671327,-0.022678372,0.15378532,0.018860465
1175,2.3691319,-0.023289237,0.1525636,0.024969118
1176,2.3711312,-0.022067508,0.1525636,0.031077769
1177,2.3731311,-0.020234911,0.150731,0.030466905
1178,2.3751311,-0.020234911,0.13790283,0.029856039
1179,2.3771311,-0.016569721,0.12140947,0.025579982
1180,2.379131,-0.015958855,0.11163563,0.023747386
1181,2.381131,-0.011682798,0.093920529,0.024358252
1182,2.3831318,-0.011682798,0.07620544,0.025579982
1183,2.3851327,-0.011071933,0.068264194,0.026190847
1184,2.3871335,-0.0098502021,0.053603426,0.028023442
1185,2.3891344,-0.0098502021,0.043829583,0.028634308
1186,2.3911345,-0.0098502021,0.03772093,0.026801713
1187,2.3931348,-0.0098502021,0.035277467,0.026190847
1188,2.3951346,-0.0080176061,0.027336219,0.024358252
1189,2.3971347,-0.0098502021,0.024281893,0.020082194
1190,2.3991347,-0.0067958757,0.026725354,0.018249599
1191,2.4011347,-0.0067958757,0.021838432,0.010919216
1192,2.4031338,-0.0074067409,0.020005837,0.011530082
1193,2.4051334,-0.0049632802,0.01817324,0.0054214289
1194,2.4071334,-0.0055741454,0.019394971,0.0035888334
1195,2.4091334,-0.0037415496,0.020005837,0.0017562376
1196,2.4111333,-0.0055741454,0.016340645,-0.0055741454
1197,2.4131333,-0.0019089539,0.015118915,-0.010461068
1198,2.4151333,-0.004352415,0.012064588,-0.010461068
1199,2.4171332,-0.0019089539,0.010231993,-0.014737124
1200,2.4191332,0.0005345071,0.0035124752,-0.022678372
1201,2.4211333,0.0011453723,-0.0013744468,-0.023900103
1202,2.4231342,0.0041996986,-0.0044287732,-0.024510968
1203,2.4251351,0.0060322941,-0.014202617,-0.028176159
1204,2.427136,0.0078648897,-0.014813482,-0.028787024
1205,2.4291369,0.010308351,-0.022143865,-0.028787024
1206,2.4311376,0.0090866201,-0.027641652,-0.026343564
1207,2.4331376,0.010308351,-0.030695979,-0.025732698
1208,2.4351376,0.010919216,-0.037415497,-0.025732698
1209,2.4371376,0.0090866201,-0.039858956,-0.025121834
1210,2.4391376,0.011530082,-0.04352415,-0.022067508
1211,2.4411376,0.015195273,-0.050243668,-0.024510968
1212,2.4431368,0.015195273,-0.051465396,-0.022678372
1213,2.4451359,0.017638734,-0.055741455,-0.019013181
1214,2.4471359,0.021303926,-0.059406646,-0.019624045
1215,2.4491359,0.021914791,-0.061239243,-0.019013181
1216,2.4511358,0.026190847,-0.06246097,-0.015958855
1217,2.4531358,0.028634308,-0.068569623,-0.015958855
1218,2.455136,0.026801713,-0.072234817,-0.014737124
1219,2.4571359,0.029245174,-0.074678279,-0.011682798
1220,2.4591359,0.028023442,-0.083230391,-0.010461068
1221,2.4611359,0.028023442,-0.087506443,-0.0074067409
1222,2.4631367,0.028634308,-0.091782503,-0.0061850105
1223,2.4651371,0.029856039,-0.096669428,-0.00068722339
1224,2.4671371,0.030466905,-0.10216721,0.0005345071
1225,2.4691371,0.032910366,-0.107665,-7.6358156e-05
1226,2.4711372,0.0322995,-0.11133019,0.0048105638
1227,2.4731372,0.034132097,-0.11133019,0.0041996986
1228,2.4751372,0.034742963,-0.11560625,0.0090866201
1229,2.4771373,0.035353824,-0.12049317,0.010308351
1230,2.4791373,0.037186421,-0.12293663,0.010919216
1231,2.4811373,0.039629884,-0.12660182,0.010308351
1232,2.4831364,0.039019018,-0.12843442,0.012751812
1233,2.4851355,0.04024075,-0.13026701,0.012751812
1234,2.4871346,0.041462477,-0.13209961,0.011530082
1235,2.4891337,0.041462477,-0.13942999,0.010919216
1236,2.4911336,0.045738537,-0.14614952,0.0096974857
1237,2.4931336,0.042684209,-0.15103643,0.0078648897
1238,2.4951336,0.044516806,-0.15653422,0.0084757553
1239,2.4971336,0.044516806,-0.15958855,0.0078648897
1240,2.4991336,0.04390594,-0.16508633,0.0054214289
1241,2.5011336,0.044516806,-0.16997325,0.0011453723
1242,2.5031351,0.044516806,-0.17302758,0.0023671028
1243,2.505136,0.048792861,-0.17486018,0.0017562376
1244,2.507136,0.048181996,-0.17913623,-0.0019089539
1245,2.5091361,0.050014593,-0.17852537,-0.0037415496
1246,2.5111361,0.050625458,-0.17852537,-0.0025198192
1247,2.5131361,0.053068917,-0.18035796,-0.0055741454
1248,2.5151361,0.054290649,-0.18157969,-0.0031306844
1249,2.5171361,0.05551238,-0.18157969,-0.0037415496
1250,2.5191361,0.058566704,-0.18463401,-0.0061850105
1251,2.5211361,0.057344973,-0.18707748,-0.0037415496
1252,2.5231353,0.057344973,-0.18646662,-0.0049632802
1253,2.5251344,0.057955839,-0.19318613,-0.0031306844
1254,2.5271335,0.061010167,-0.19440787,-0.0019089539
1255,2.5291326,0.057955839,-0.20051652,0.0005345071
1256,2.5311326,0.058566704,-0.20173825,0.002977968
1257,2.5331323,0.059788436,-0.20479257,0.0035888334
1258,2.5351323,0.057955839,-0.20723604,0.0023671028
1259,2.5371323,0.057955839,-0.21151209,0.0011453723
1260,2.5391322,0.059788436,-0.21273382,0.0011453723
1261,2.5411322,0.059788436,-0.2182316,-7.6358156e-05
1262,2.5431331,0.060399301,-0.22250767,0.0005345071
1263,2.545134,0.05917757,-0.22128594,-7.6358156e-05
1264,2.5471349,0.059788436,-0.22556199,-7.6358156e-05
1265,2.5491358,0.05917757,-0.23533584,-0.00068722339
1266,2.5511358,0.056734111,-0.24083363,-0.00068722339
1267,2.5531358,0.054290649,-0.24510968,0.0005345071
1268,2.5551359,0.053679783,-0.25488353,-0.004352415
1269,2.5571362,0.054290649,-0.25977045,-0.0061850105
1270,2.5591362,0.052458052,-0.26893342,-0.0086284718
1271,2.5611362,0.050014593,-0.27504209,-0.0080176061
1272,2.5631348,0.050625458,-0.28115073,-0.0098502021
1273,2.5651339,0.051236324,-0.28481591,-0.016569721
1274,2.567133,0.052458052,-0.28970283,-0.01779145
1275,2.5691321,0.051236324,-0.29520062,-0.019624045
1276,2.5711312,0.051847186,-0.29825497,-0.027565295
1277,2.5731312,0.050625458,-0.302531,-0.027565295
1278,2.5751312,0.053679783,-0.30375275,-0.032452215
1279,2.5771312,0.054901514,-0.30619621,-0.036728274
1280,2.5791312,0.056734111,-0.31047225,-0.038560867
1281,2.5811312,0.059788436,-0.31413746,-0.042836927
1282,2.5831321,0.061621033,-0.31474832,-0.048334714
1283,2.5851329,0.061621033,-0.3202461,-0.050167307
1284,2.5871338,0.064064495,-0.3220787,-0.050167307
1285,2.5891347,0.068951413,-0.32635477,-0.053221636
1286,2.5911347,0.071394876,-0.33001995,-0.058719423
1287,2.5931349,0.071394876,-0.33368513,-0.059941154
1288,2.5951349,0.073838338,-0.3379612,-0.061162882
1289,2.597135,0.075670935,-0.34040466,-0.061162882
1290,2.599135,0.073838338,-0.34773505,-0.062384613
1291,2.601135,0.07506007,-0.34895676,-0.062384613
1292,2.6031342,0.077503525,-0.35201108,-0.062995479
1293,2.6051342,0.076281801,-0.35689801,-0.062384613
1294,2.6071342,0.075670935,-0.36056322,-0.063606344
1295,2.6091342,0.078725256,-0.36483926,-0.062995479
1296,2.6111341,0.081779584,-0.36972618,-0.058108557
1297,2.6131341,0.08239045,-0.37216964,-0.05627596
1298,2.615134,0.079946987,-0.37094793,-0.054443367
1299,2.6171337,0.081779584,-0.37583485,-0.049556442
1300,2.6191336,0.081168719,-0.37583485,-0.046502117
1301,2.6211336,0.080557853,-0.38194349,-0.042226061
1302,2.6231344,0.076892659,-0.38133264,-0.038560867
1303,2.6251353,0.075670935,-0.38927388,-0.035506543
1304,2.6271362,0.074449204,-0.39110649,-0.035506543
1305,2.6291381,0.071394876,-0.39965859,-0.030619621
1306,2.631139,0.06345363,-0.39843684,-0.06421721
1307,2.633139,0.054901514,-0.38805214,-0.080099702
1308,2.635139,0.06345363,-0.39416081,-0.079488844
1309,2.6371391,0.072616607,-0.40576723,-0.062995479
1310,2.6391391,0.072616607,-0.40943244,-0.054443367
1311,2.6411391,0.065897085,-0.40882155,-0.055054229
1312,2.6431382,0.062231898,-0.41615194,-0.032452215
1313,2.6451374,0.054901514,-0.42592579,-0.020234911
1314,2.6471374,0.050014593,-0.44119743,0.0035888334
1315,2.649137,0.044516806,-0.44913867,0.021914791
1316,2.651137,0.042684209,-0.45707992,0.033521231
1317,2.653137,0.038408153,-0.4625777,0.03596469
1318,2.655137,0.037797287,-0.47051895,0.037797287
1319,2.6571369,0.037797287,-0.47479501,0.033521231
1320,2.6591369,0.043295074,-0.47418416,0.033521231
1321,2.6611369,0.04757113,-0.47540587,0.024969118
1322,2.6631377,0.049403727,-0.47662762,0.019471331
1323,2.6651377,0.054290649,-0.47601673,0.013362677
1324,2.6671377,0.056734111,-0.47112983,0.0048105638
1325,2.6691377,0.05917757,-0.46807548,0.0017562376
1326,2.6711377,0.06650795,-0.46502116,-0.010461068
1327,2.6731377,0.068951413,-0.46013424,-0.013515393
1328,2.6751378,0.068340547,-0.45707992,-0.015347989
1329,2.6771378,0.07078401,-0.45463645,-0.020845776
1330,2.6791378,0.072616607,-0.45463645,-0.025121834
1331,2.6811379,0.073838338,-0.45646906,-0.028787024
1332,2.683137,0.075670935,-0.45707992,-0.03306308
1333,2.6851362,0.077503525,-0.45891252,-0.034895677
1334,2.6871353,0.077503525,-0.4625777,-0.034284811
1335,2.6891334,0.077503525,-0.46379945,-0.039171733
1336,2.6911334,0.081779584,-0.46990809,-0.041615196
1337,2.6931333,0.083001316,-0.47112983,-0.04100433
1338,2.6951333,0.083001316,-0.47357327,-0.044058654
1339,2.6971333,0.085444778,-0.47418416,-0.047112983
1340,2.6991333,0.087888241,-0.47723848,-0.050167307
1341,2.7011333,0.089109965,-0.47357327,-0.051389039
1342,2.703134,0.090331696,-0.47479501,-0.054443367
1343,2.7051348,0.090942562,-0.47540587,-0.056886826
1344,2.7071349,0.092164293,-0.47418416,-0.059330288
1345,2.7091352,0.092164293,-0.47418416,-0.058108557
1346,2.7111353,0.09399689,-0.47601673,-0.062384613
1347,2.7131353,0.095829487,-0.47968194,-0.064828075
1348,2.7151353,0.095218621,-0.47784933,-0.061773747
1349,2.7171353,0.094607756,-0.47662762,-0.061162882
1350,2.7191353,0.094607756,-0.47051895,-0.062384613
1351,2.7211353,0.095218621,-0.46929723,-0.061773747
1352,2.7231345,0.096440352,-0.46135598,-0.063606344
1353,2.7251336,0.099494673,-0.4558582,-0.061773747
1354,2.7271327,0.098883815,-0.45280385,-0.061773747
1355,2.7291319,0.099494673,-0.44241914,-0.062995479
1356,2.7311318,0.102549,-0.43508878,-0.065438941
1357,2.7331318,0.10377073,-0.43203443,-0.066660672
1358,2.7351318,0.1062142,-0.42226061,-0.069714993
1359,2.7371317,0.10743593,-0.41737369,-0.070325859
1360,2.7391317,0.10987939,-0.41370848,-0.072158456
1361,2.7411317,0.11110111,-0.40882155,-0.076434515
1362,2.7431325,0.11232284,-0.40637809,-0.078877978
1363,2.7451333,0.11171198,-0.40271291,-0.078877978
1364,2.7471342,0.1165989,-0.40210205,-0.082543164
1365,2.7491351,0.11537717,-0.40088031,-0.081932299
1366,2.7511351,0.11904237,-0.39965859,-0.081321433
1367,2.7531352,0.1184315,-0.39721513,-0.081321433
1368,2.7551352,0.12087496,-0.39477167,-0.081932299
1369,2.7571352,0.12270755,-0.3923282,-0.081932299
1370,2.7591353,0.12331842,-0.39416081,-0.079488844
1371,2.7611353,0.12759447,-0.3923282,-0.078267112
1372,2.7631346,0.1288162,-0.38866302,-0.077045381
1373,2.7651337,0.13064881,-0.38805214,-0.073991053
1374,2.7671328,0.1324814,-0.38683042,-0.072158456
1375,2.7691319,0.13370313,-0.3837761,-0.070325859
1376,2.7711311,0.134314,-0.38988474,-0.066049807
1377,2.7731311,0.13736832,-0.38927388,-0.064828075
1378,2.775131,0.13553573,-0.39110649,-0.061162882
1379,2.777131,0.13370313,-0.39721513,-0.056886826
1380,2.779131,0.13675746,-0.39843684,-0.055665094
1381,2.7811311,0.13920091,-0.40882155,-0.054443367
1382,2.783132,0.13736832,-0.40943244,-0.051999904
1383,2.7851329,0.14225525,-0.41798455,-0.048334714
1384,2.7871338,0.14042264,-0.42103887,-0.045891251
1385,2.7891347,0.1428661,-0.4277584,-0.040393464
1386,2.7911347,0.1428661,-0.43692136,-0.03733914
1387,2.7931347,0.14408784,-0.44303003,-0.036728274
1388,2.7951348,0.14469871,-0.45219299,-0.031230485
1389,2.7971348,0.14592044,-0.46318856,-0.028176159
1390,2.7991348,0.14347698,-0.46685377,-0.024510968
1391,2.8011348,0.1465313,-0.4802928,-0.025121834
1392,2.8031339,0.1483639,-0.48456886,-0.025121834
1393,2.8051339,0.15325081,-0.49556443,-0.023900103
1394,2.8071339,0.15935947,-0.50350571,-0.025732698
1395,2.8091338,0.16363552,-0.51389039,-0.024510968
1396,2.8111338,0.17096591,-0.52060992,-0.026954429
1397,2.8131341,0.17218764,-0.52488595,-0.02939789
1398,2.815134,0.17890716,-0.53404891,-0.02939789
1399,2.817134,0.18135062,-0.5371033,-0.031841353
1400,2.819134,0.18501581,-0.54687709,-0.032452215
1401,2.8211339,0.1905136,-0.54932058,-0.036117408
1402,2.8231348,0.19356793,-0.55665094,-0.03733914
1403,2.8251356,0.19601138,-0.56520307,-0.039171733
1404,2.8271365,0.19845484,-0.56886828,-0.040393464
1405,2.8291374,0.20273091,-0.57680953,-0.043447789
1406,2.8311383,0.2045635,-0.57864213,-0.04466952
1407,2.8331383,0.20639609,-0.58230728,-0.047112983
1408,2.8351383,0.21067216,-0.58597249,-0.048334714
1409,2.8371384,0.21494821,-0.5896377,-0.050167307
1410,2.8391384,0.21739167,-0.59330285,-0.051999904
1411,2.8411384,0.22411118,-0.59757894,-0.055054229
1412,2.8431375,0.22594379,-0.60185498,-0.058108557
1413,2.8451366,0.22655465,-0.60185498,-0.055054229
1414,2.8471358,0.22960897,-0.60185498,-0.054443367
1415,2.8491357,0.23021984,-0.60124409,-0.053832501
1416,2.8511357,0.23144157,-0.6030767,-0.05261077
1417,2.8531357,0.23388503,-0.6049093,-0.051999904
1418,2.8551356,0.2326633,-0.60185498,-0.048945576
1419,2.8571364,0.23388503,-0.60246587,-0.047723848
1420,2.8591365,0.23144157,-0.6030767,-0.045280386
1421,2.8611365,0.23144157,-0.60002238,-0.041615196
1422,2.8631374,0.23144157,-0.60063326,-0.039782599
1423,2.8651375,0.22960897,-0.59574634,-0.036728274
1424,2.8671375,0.23205243,-0.5914703,-0.035506543
1425,2.8691375,0.2326633,-0.59024853,-0.030008756
1426,2.8711376,0.23327416,-0.58413988,-0.026343564
1427,2.8731373,0.23327416,-0.58169645,-0.023900103
1428,2.8751372,0.23021984,-0.57986385,-0.025121834
1429,2.8771372,0.2308307,-0.57680953,-0.020234911
1430,2.8791372,0.22777638,-0.5719226,-0.015958855
1431,2.8811372,0.22960897,-0.56886828,-0.012904529
1432,2.8831363,0.22960897,-0.56581396,-0.010461068
1433,2.8851354,0.22899811,-0.55909443,-0.0080176061
1434,2.8871345,0.22716552,-0.55359662,-0.004352415
1435,2.8891336,0.22960897,-0.54870969,0.0005345071
1436,2.8911336,0.22899811,-0.54199016,0.0017562376
1437,2.8931336,0.22777638,-0.53893584,0.0041996986
1438,2.8951335,0.22716552,-0.53038377,0.0066431593
1439,2.8971335,0.22777638,-0.52549684,0.012751812
1440,2.8991335,0.2308307,-0.5193882,0.013973542
1441,2.9011334,0.2308307,-0.51450127,0.015806139
1442,2.9031343,0.23388503,-0.50961435,0.017638734
1443,2.9051352,0.23449589,-0.50778174,0.023747386
1444,2.907136,0.23571762,-0.50594914,0.026801713
1445,2.9091361,0.23510677,-0.50472742,0.029856039
1446,2.9111361,0.23877195,-0.50717086,0.032910366
1447,2.9131361,0.23938282,-0.50656003,0.034742963
1448,2.9151362,0.24060455,-0.50961435,0.037186421
1449,2.9171354,0.23816109,-0.50778174,0.038408153
1450,2.9191354,0.24121541,-0.50961435,0.037186421
1451,2.9211354,0.24243714,-0.51389039,0.038408153
1452,2.9231344,0.24304801,-0.51389039,0.038408153
1453,2.9251335,0.24426974,-0.51450127,0.03596469
1454,2.9271326,0.2485458,-0.51572299,0.037186421
1455,2.9291317,0.24732406,-0.5132795,0.036575556
1456,2.9311317,0.2485458,-0.51450127,0.036575556
1457,2.9331317,0.25098926,-0.5132795,0.030466905
1458,2.9351318,0.24976753,-0.51205778,0.028023442
1459,2.9371318,0.24793494,-0.51144695,0.023747386
1460,2.9391319,0.2485458,-0.50900346,0.019471331
1461,2.9411319,0.24671321,-0.51022518,0.013973542
1462,2.9431328,0.24671321,-0.50656003,0.0084757553
1463,2.9451337,0.24426974,-0.50594914,0.0060322941
1464,2.9471346,0.24243714,-0.50472742,0.002977968
1465,2.9491355,0.23877195,-0.50289482,-0.0031306844
1466,2.9511355,0.23205243,-0.5016731,-0.0080176061
1467,2.9531351,0.23205243,-0.50228393,-0.011071933
1468,2.9551351,0.22594379,-0.49800789,-0.012904529
1469,2.9571351,0.22288945,-0.49495357,-0.018402316
1470,2.9591351,0.22044599,-0.49373183,-0.020845776
1471,2.9611351,0.21250474,-0.4888449,-0.020234911
1472,2.9631344,0.21372648,-0.48701233,-0.023289237
1473,2.9651335,0.20822869,-0.47968194,-0.021456642
1474,2.9671326,0.20150918,-0.47296241,-0.026954429
1475,2.9691317,0.19845484,-0.46868637,-0.023289237
1476,2.9711308,0.18868101,-0.45952338,-0.020845776
1477,2.9731308,0.18379408,-0.45769078,-0.018402316
1478,2.9751307,0.18196149,-0.45463645,-0.017180584
1479,2.9771307,0.17707457,-0.44669521,-0.014126259
1480,2.9791307,0.16974418,-0.44425175,-0.0098502021
1481,2.9811307,0.16119206,-0.43875396,-0.0061850105
1482,2.9831315,0.16119206,-0.4381431,-0.0025198192
1483,2.9851324,0.15508342,-0.43142357,0.0060322941
1484,2.9871333,0.15019649,-0.43142357,0.0096974857
1485,2.9891342,0.14164437,-0.42836925,0.013973542
1486,2.9911342,0.13614659,-0.42653665,0.018249599
1487,2.9931343,0.13003793,-0.42653665,0.022525655
1488,2.9951343,0.12454015,-0.42714754,0.022525655
1489,2.9971343,0.12087496,-0.4277584,0.024969118
1490,2.9991343,0.1165989,-0.42959097,0.026801713
1491,3.0011342,0.11354458,-0.42959097,0.026190847
1492,3.0031333,0.11049025,-0.42714754,0.027412578
1493,3.0051333,0.11110111,-0.42836925,0.027412578
1494,3.0071333,0.10987939,-0.42470407,0.026801713
1495,3.0091332,0.11232284,-0.41920626,0.025579982
1496,3.0111332,0.11293371,-0.41370848,0.026801713
1497,3.0131336,0.11293371,-0.41065416,0.025579982
1498,3.0151336,0.11476631,-0.40210205,0.023136521
1499,3.0171336,0.11720977,-0.40026945,0.021914791
1500,3.0191337,0.12087496,-0.38927388,0.020082194
1501,3.0211337,0.12392928,-0.38316521,0.018860465
1502,3.0231342,0.12759447,-0.37950003,0.015806139
1503,3.0251347,0.1324814,-0.37094793,0.013362677
1504,3.0271356,0.13981178,-0.36178493,0.0096974857
1505,3.0291365,0.14225525,-0.35628715,0.0090866201
1506,3.0311374,0.14897476,-0.34712419,0.0041996986
1507,3.0331374,0.15508342,-0.34040466,0.0035888334
1508,3.0351374,0.15874861,-0.33490688,0.0011453723
1509,3.0371374,0.16546813,-0.33063081,-0.0037415496
1510,3.0391374,0.16546813,-0.3220787,-0.0067958757
1511,3.0411374,0.17402023,-0.31780264,-0.0092393365
1512,3.0431365,0.17585284,-0.31658092,-0.011682798
1513,3.0451356,0.18012889,-0.31413746,-0.011682798
1514,3.0471356,0.18012889,-0.31535918,-0.014126259
1515,3.0491355,0.18501581,-0.31719178,-0.016569721
1516,3.0511355,0.18990274,-0.3184135,-0.020845776
1517,3.053135,0.18929186,-0.32085696,-0.022067508
1518,3.0551349,0.19295706,-0.32574388,-0.020845776
1519,3.0571349,0.19356793,-0.3287982,-0.019624045
1520,3.059134,0.19417879,-0.33001995,-0.019624045
1521,3.061134,0.19723311,-0.33918291,-0.017180584
1522,3.0631349,0.19723311,-0.34406984,-0.011682798
1523,3.065135,0.19540052,-0.34529158,-0.010461068
1524,3.067135,0.19662225,-0.34834591,-0.0055741454
1525,3.069135,0.19601138,-0.3575089,-0.0012980887
1526,3.0711351,0.19906572,-0.36483926,0.0041996986
1527,3.0731351,0.19906572,-0.36850446,0.0078648897
1528,3.0751351,0.2008983,-0.37644571,0.013362677
1529,3.0771351,0.19784398,-0.38194349,0.017638734
1530,3.079135,0.19906572,-0.38744128,0.026801713
1531,3.081135,0.19845484,-0.39782599,0.034132097
1532,3.0831344,0.19601138,-0.40088031,0.041462477
1533,3.0851339,0.19601138,-0.40943244,0.051847186
1534,3.087133,0.1923462,-0.41065416,0.054901514
1535,3.0891321,0.18807013,-0.41615194,0.061010167
1536,3.0911321,0.18135062,-0.41554108,0.069562279
1537,3.0931321,0.1727985,-0.41431937,0.076281801
1538,3.0951318,0.1727985,-0.41309762,0.07811439
1539,3.0971319,0.16913332,-0.41126502,0.083001316
1540,3.0991319,0.16668986,-0.40759984,0.089109965
1541,3.1011319,0.16180293,-0.40332377,0.096440352
1542,3.1031328,0.16241379,-0.40088031,0.099494673
1543,3.1051338,0.16363552,-0.40210205,0.10499246
1544,3.1071338,0.1642464,-0.40149119,0.11171198
1545,3.1091338,0.16119206,-0.40515637,0.11720977
1546,3.1111338,0.15813774,-0.40943244,0.11965323
1547,3.1131343,0.15691601,-0.40759984,0.11720977
1548,3.1151343,0.15386169,-0.40759984,0.11354458
1549,3.1171343,0.15325081,-0.40882155,0.11049025
1550,3.1191352,0.15447254,-0.40698898,0.10865766
1551,3.1211352,0.15997034,-0.4100433,0.10804679
1552,3.1231343,0.15997034,-0.40882155,0.10926852
1553,3.1251334,0.16485725,-0.41370848,0.1062142
1554,3.1271325,0.17157678,-0.41309762,0.10132727
1555,3.1291316,0.17340937,-0.41493022,0.10193814
1556,3.1311315,0.18318321,-0.42164972,0.095829487
1557,3.1331315,0.18623754,-0.42409319,0.096440352
1558,3.1351315,0.18745928,-0.42409319,0.091553427
1559,3.1371315,0.19540052,-0.42836925,0.092164293
1560,3.1391315,0.19967657,-0.42959097,0.08972083
1561,3.1411315,0.20578523,-0.42653665,0.08972083
1562,3.1431324,0.20761782,-0.42164972,0.091553427
1563,3.1451333,0.21494821,-0.42042801,0.090942562
1564,3.1471342,0.2167808,-0.41920626,0.091553427
1565,3.1491351,0.22044599,-0.41431937,0.095218621
1566,3.1511352,0.22533292,-0.40821069,0.093386024
1567,3.1531352,0.22716552,-0.40332377,0.096440352
1568,3.1551354,0.2308307,-0.39843684,0.10010554
1569,3.1571354,0.23388503,-0.39538252,0.10560333
1570,3.1591354,0.2363285,-0.38805214,0.10987939
1571,3.1611353,0.23999368,-0.38316521,0.11476631
1572,3.1631344,0.24304801,-0.37461311,0.1165989
1573,3.1651335,0.24426974,-0.37094793,0.1202641
1574,3.1671326,0.24549147,-0.3642284,0.12759447
1575,3.1691318,0.24610233,-0.35506544,0.13370313
1576,3.1711311,0.24732406,-0.3465133,0.13859005
1577,3.1731311,0.24793494,-0.3397938,0.14530957
1578,3.1751311,0.24915667,-0.33490688,0.15141822
1579,3.1771312,0.24976753,-0.32696563,0.15325081
1580,3.1791312,0.2503784,-0.32330042,0.15874861
1581,3.1811312,0.24793494,-0.31291571,0.16546813
1582,3.1831321,0.24426974,-0.30863968,0.17035505
1583,3.185133,0.24365887,-0.29642236,0.17585284
1584,3.1871339,0.24121541,-0.28664851,0.18073976
1585,3.1891348,0.24060455,-0.28603765,0.18257235
1586,3.1911348,0.2363285,-0.27931812,0.18807013
1587,3.1931348,0.2326633,-0.27870727,0.1905136
1588,3.1951348,0.23327416,-0.27565295,0.1905136
1589,3.1971348,0.22838724,-0.27809641,0.19295706
1590,3.1991347,0.22411118,-0.28176159,0.19784398
1591,3.2011347,0.22227859,-0.29031372,0.19601138
1592,3.2031338,0.21800253,-0.2921463,0.19906572
1593,3.2051329,0.21616994,-0.2958115,0.19845484
1594,3.2071328,0.21189389,-0.29886582,0.20150918
1595,3.2091328,0.20578523,-0.30069843,0.20578523
1596,3.2111328,0.20212004,-0.29458976,0.20639609
1597,3.2131327,0.20273091,-0.2958115,0.20639609
1598,3.2151327,0.20273091,-0.28664851,0.20822869
1599,3.2171328,0.2008983,-0.27809641,0.20578523
1600,3.2191328,0.20395264,-0.27565295,0.20761782
1601,3.2211328,0.20517437,-0.26832256,0.20517437
1602,3.2231337,0.20883955,-0.25977045,0.20150918
1603,3.2251346,0.20883955,-0.25610524,0.2008983
1604,3.2271355,0.21250474,-0.24205536,0.20150918
1605,3.2291364,0.21555908,-0.23167065,0.19967657
1606,3.2311372,0.21433735,-0.22250767,0.19784398
1607,3.2331376,0.21250474,-0.21884248,0.19601138
1608,3.2351376,0.21311562,-0.21151209,0.19784398
1609,3.2371376,0.21372648,-0.20723604,0.19478965
1610,3.2391375,0.21250474,-0.20357084,0.19540052
1611,3.2411375,0.21311562,-0.19685133,0.19784398
1612,3.2431366,0.21433735,-0.19746219,0.19662225
1613,3.2451357,0.21311562,-0.19440787,0.19845484
1614,3.2471357,0.21250474,-0.19746219,0.19906572
1615,3.2491357,0.21067216,-0.19440787,0.20273091
1616,3.2511357,0.21006128,-0.19257528,0.20578523
1617,3.2531357,0.20883955,-0.19135354,0.20578523
1618,3.2551357,0.20761782,-0.18707748,0.21006128
1619,3.2571357,0.20212004,-0.18219055,0.21372648
1620,3.2591357,0.20212004,-0.18096884,0.21433735
1621,3.2611357,0.19356793,-0.17669277,0.22899811
1622,3.2631366,0.18868101,-0.17241672,0.2326633
1623,3.2651375,0.18440494,-0.16325374,0.23693936
1624,3.2671376,0.18135062,-0.15103643,0.24182628
1625,3.2691376,0.18196149,-0.13698652,0.2448806
1626,3.2711376,0.18073976,-0.1217149,0.24793494
1627,3.2731377,0.18073976,-0.11316279,0.24793494
1628,3.2751377,0.18135062,-0.10155635,0.25343272
1629,3.2771377,0.18196149,-0.096058562,0.25404358
1630,3.2791377,0.18440494,-0.08933904,0.2570979
1631,3.2811377,0.18501581,-0.084452122,0.26076311
1632,3.2831368,0.18562667,-0.080176063,0.26076311
1633,3.2851359,0.18807013,-0.074067414,0.26565003
1634,3.287135,0.1868484,-0.069791354,0.26687175
1635,3.2891341,0.1868484,-0.06612616,0.26870435
1636,3.291134,0.18501581,-0.060628377,0.26870435
1637,3.2931335,0.18501581,-0.053297993,0.27053696
1638,3.2951335,0.18562667,-0.05085453,0.27298039
1639,3.2971336,0.18196149,-0.042913284,0.27420214
1640,3.2991336,0.18196149,-0.034972034,0.27298039
1641,3.3011336,0.18318321,-0.030695979,0.27359128
1642,3.3031354,0.18379408,-0.029474247,0.27542385
1643,3.3051362,0.18562667,-0.031306844,0.27786732
1644,3.3071363,0.18501581,-0.029474247,0.27725646
1645,3.3091363,0.18501581,-0.016646078,0.28214338
1646,3.3111363,0.18623754,-0.0044287732,0.27786732
1647,3.3131363,0.1868484,0.0035124752,0.274813
1648,3.3151363,0.19356793,0.015729779,0.27359128
1649,3.3171363,0.19906572,0.032834008,0.27298039
1650,3.3191363,0.20150918,0.037110064,0.27359128
1651,3.3211363,0.20639609,0.051770829,0.27359128
1652,3.3231354,0.20945042,0.064599,0.27603474
1653,3.3251345,0.21250474,0.067653328,0.27236953
1654,3.3271336,0.21433735,0.081092358,0.274813
1655,3.3291327,0.21494821,0.08781188,0.27298039
1656,3.3311327,0.21800253,0.098196588,0.27175868
1657,3.3331337,0.2167808,0.098807454,0.26870435
1658,3.3351337,0.21433735,0.10919216,0.26626089
1659,3.3371337,0.21433735,0.11163563,0.26198483
1660,3.3391336,0.21250474,0.12018774,0.25465444
1661,3.3411336,0.21006128,0.12873985,0.2485458
1662,3.3431345,0.20945042,0.13179417,0.2485458
1663,3.3451354,0.21067216,0.13912456,0.24304801
1664,3.3471363,0.21189389,0.14767668,0.24304801
1665,3.3491372,0.21006128,0.14889841,0.24060455
1666,3.3511373,0.21372648,0.15683965,0.23755023
1667,3.3531373,0.21555908,0.16172658,0.23327416
1668,3.3551373,0.21555908,0.16355917,0.23327416
1669,3.3571373,0.21616994,0.17027868,0.23205243
1670,3.3591373,0.21189389,0.17027868,0.2326633
1671,3.3611373,0.21067216,0.17088956,0.2326633
1672,3.3631355,0.20822869,0.16661349,0.2326633
1673,3.3651346,0.20761782,0.16661349,0.23449589
1674,3.3671337,0.20395264,0.17455475,0.22899811
1675,3.3691328,0.19967657,0.17760907,0.22594379
1676,3.3711319,0.19723311,0.18616119,0.22105686
1677,3.3731319,0.19845484,0.18738291,0.21922426
1678,3.375132,0.19723311,0.18677205,0.22411118
1679,3.377132,0.19906572,0.18677205,0.22716552
1680,3.379132,0.1923462,0.18066339,0.23144157
1681,3.3811321,0.18929186,0.17516561,0.23816109
1682,3.3831327,0.18379408,0.16905695,0.24610233
1683,3.3851336,0.17951803,0.16966783,0.24549147
1684,3.3871345,0.17218764,0.16233744,0.23877195
1685,3.3891353,0.1727985,0.15867224,0.23938282
1686,3.3911353,0.1642464,0.15806139,0.24243714
1687,3.3931344,0.1642464,0.15806139,0.24610233
1688,3.3951344,0.16241379,0.15867224,0.24793494
1689,3.3971344,0.15997034,0.15989397,0.24732406
1690,3.3991344,0.15935947,0.16111571,0.24304801
1691,3.4011344,0.15997034,0.16294831,0.23510677
1692,3.4031335,0.16302466,0.16233744,0.23388503
1693,3.4051335,0.16485725,0.15989397,0.23693936
1694,3.4071335,0.16302466,0.16355917,0.24182628
1695,3.4091334,0.16363552,0.16600263,0.25282186
1696,3.4111325,0.15752688,0.17027868,0.26076311
1697,3.4131325,0.15630515,0.17027868,0.26626089
1698,3.4151325,0.14775303,0.16905695,0.27236953
1699,3.4171324,0.13859005,0.16722436,0.28214338
1700,3.4191324,0.13614659,0.16539176,0.28275424
1701,3.4211325,0.12270755,0.16661349,0.29191723
1702,3.4231332,0.1202641,0.16233744,0.28947377
1703,3.4251341,0.11476631,0.16233744,0.28886291
1704,3.427135,0.10926852,0.15867224,0.29374984
1705,3.4291351,0.10804679,0.15439619,0.29191723
1706,3.431136,0.11171198,0.150731,0.28764117
1707,3.433136,0.11293371,0.14523321,0.28764117
1708,3.435136,0.11598804,0.13729197,0.28397599
1709,3.437136,0.11965323,0.13362677,0.28458685
1710,3.4391359,0.12331842,0.12202033,0.28031078
1711,3.4411359,0.12209669,0.1067487,0.274813
1712,3.4431353,0.12270755,0.10125092,0.27542385
1713,3.4451344,0.12209669,0.087201014,0.27175868
1714,3.4471343,0.11965323,0.070707649,0.26381743
1715,3.4491343,0.12087496,0.063377269,0.26381743
1716,3.4511343,0.11782064,0.048105638,0.26076311
1717,3.4531342,0.11232284,0.035888333,0.25587618
1718,3.4551342,0.11049025,0.026725354,0.25343272
1719,3.4571343,0.10499246,0.012675454,0.25098926
1720,3.4591343,0.10315987,-0.001985312,0.24732406
1721,3.4611343,0.10132727,-0.013591751,0.24671321
1722,3.4631348,0.098272949,-0.017256944,0.24732406
1723,3.4651349,0.097051218,-0.025198191,0.24976753
1724,3.4671349,0.095218621,-0.026419923,0.24915667
1725,3.4691349,0.095218621,-0.032528576,0.25282186
1726,3.4711357,0.093386024,-0.032528576,0.25770879
1727,3.4731357,0.094607756,-0.031306844,0.2589305
1728,3.4751357,0.094607756,-0.026419923,0.26198483
1729,3.4771357,0.095829487,-0.022143865,0.26687175
1730,3.4791357,0.096440352,-0.017867809,0.26931521
1731,3.4811357,0.096440352,-0.0099265603,0.26992607
1732,3.4831349,0.097051218,-0.0050396384,0.27053696
1733,3.485134,0.098883815,0.0035124752,0.274813
1734,3.4871331,0.10132727,0.01817324,0.274813
1735,3.4891331,0.10499246,0.023060163,0.27359128
1736,3.4911331,0.1062142,0.043218717,0.2766456
1737,3.493133,0.10804679,0.051159963,0.27603474
1738,3.495133,0.11110111,0.064599,0.27786732
1739,3.497133,0.11110111,0.070096783,0.27969992
1740,3.499133,0.11171198,0.086590149,0.27786732
1741,3.5011331,0.11354458,0.09941832,0.28031078
1742,3.503134,0.11171198,0.11346822,0.27847821
1743,3.5051349,0.10560333,0.15622878,0.27969992
1744,3.5071349,0.1007164,0.16600263,0.27786732
1745,3.509135,0.099494673,0.17638734,0.28336513
1746,3.511135,0.095829487,0.18188512,0.28825203
1747,3.513135,0.094607756,0.18066339,0.2943607
1748,3.515135,0.09399689,0.1788308,0.30352366
1749,3.5171349,0.09399689,0.17333302,0.31329751
1750,3.5191349,0.094607756,0.17516561,0.31635183
1751,3.5211348,0.097662084,0.17272215,0.32368222
1752,3.5231343,0.1007164,0.17272215,0.32673654
1753,3.5251334,0.10010554,0.17272215,0.33040175
1754,3.5271326,0.10499246,0.17027868,0.33712125
1755,3.5291317,0.10865766,0.16111571,0.34384078
1756,3.5311317,0.11293371,0.15561792,0.35239288
1757,3.5331318,0.11537717,0.14584407,0.35666895
1758,3.5351318,0.11720977,0.13240504,0.36827537
1759,3.5371318,0.1202641,0.1244638,0.37194058
1760,3.5391319,0.12270755,0.10369437,0.37866008
1761,3.5411319,0.12270755,0.088422745,0.38293615
1762,3.5431328,0.12392928,0.074983709,0.38476875
1763,3.5451337,0.12759447,0.05299256,0.38904479
1764,3.5471346,0.12820534,0.034055736,0.39148825
1765,3.5491354,0.12942708,0.023060163,0.3945426
1766,3.5511354,0.13125966,-0.010537425,0.40370557
1767,3.5531354,0.13187054,-0.02397646,0.40675989
1768,3.5551354,0.1324814,-0.028252518,0.40859249
1769,3.5571354,0.13553573,-0.033750303,0.40675989
1770,3.5591354,0.13981178,-0.038026363,0.3994295
1771,3.5611354,0.14347698,-0.037415497,0.39393172
1772,3.5631344,0.14775303,-0.037415497,0.3908774
1773,3.5651335,0.15080735,-0.03191771,0.38599047
1774,3.5671326,0.15508342,-0.031306844,0.38354701
1775,3.5691317,0.16485725,-0.030695979,0.38171443
1776,3.5711308,0.16913332,-0.02397646,0.37743837
1777,3.5731308,0.17218764,-0.020922136,0.37682751
1778,3.5751308,0.1727985,-0.0093156947,0.3731623
1779,3.5771308,0.17890716,-0.00015271631,0.37194058
1780,3.5791309,0.17951803,0.0035124752,0.37010798
1781,3.5811309,0.17890716,0.010842858,0.36766452
1782,3.5831318,0.17707457,0.013897184,0.37438405
1783,3.5851327,0.17524196,0.018784106,0.3749949
1784,3.5871336,0.17340937,0.034666602,0.37132972
1785,3.5891345,0.17096591,0.04932737,0.36583191
1786,3.5911345,0.1746311,0.065209866,0.35605809
1787,3.5931345,0.1727985,0.072540246,0.3487277
1788,3.5951344,0.17524196,0.090255342,0.33895385
1789,3.5971344,0.17402023,0.096363991,0.33284521
1790,3.5991344,0.17707457,0.11407909,0.3206279
1791,3.6011343,0.18012889,0.12018774,0.31024319
1792,3.6031334,0.17951803,0.12507465,0.30596712
1793,3.6051334,0.17951803,0.13484851,0.29313895
1794,3.6071334,0.18196149,0.14217889,0.28397599
1795,3.6091334,0.18073976,0.14340061,0.274813
1796,3.6111335,0.17707457,0.15317446,0.26626089
1797,3.6131335,0.17340937,0.15683965,0.25404358
1798,3.6151335,0.17402023,0.15867224,0.24793494
1799,3.6171336,0.16974418,0.15683965,0.23693936
1800,3.6191336,0.16607898,0.15439619,0.22472206
1801,3.6211336,0.16485725,0.14767668,0.21250474
1802,3.6231346,0.16119206,0.14217889,0.20883955
1803,3.6251354,0.15752688,0.12751812,0.19478965
1804,3.6271363,0.15691601,0.11957687,0.18990274
1805,3.6291372,0.15263996,0.09941832,0.17768542
1806,3.631138,0.14897476,0.075594574,0.16913332
1807,3.633138,0.14592044,0.061544672,0.16607898
1808,3.635138,0.13981178,0.034055736,0.15569428
1809,3.637138,0.1324814,0.0016798794,0.15386169
1810,3.639138,0.13064881,-0.014813482,0.15202908
1811,3.6411379,0.12392928,-0.044745877,0.1465313
1812,3.643137,0.1202641,-0.059406646,0.14775303
1813,3.6451362,0.11110111,-0.087506443,0.13797919
1814,3.6471358,0.1043816,-0.107665,0.13187054
1815,3.6491358,0.10132727,-0.11438452,0.12820534
1816,3.6511357,0.086055644,-0.1375974,0.11904237
1817,3.6531357,0.080557853,-0.14370605,0.11598804
1818,3.6551358,0.074449204,-0.14859296,0.11171198
1819,3.6571358,0.060399301,-0.15286903,0.1062142
1820,3.6591358,0.04390594,-0.1516473,0.1007164
1821,3.6611359,0.023747386,-0.14859296,0.098883815
1822,3.6631368,0.014584408,-0.14248432,0.098883815
1823,3.6651368,-0.0074067409,-0.13332134,0.097662084
1824,3.6671368,-0.019013181,-0.12476923,0.097051218
1825,3.6691368,-0.050167307,-0.10461067,0.10010554
1826,3.6711368,-0.080710568,-0.08933904,0.10315987
1827,3.6731368,-0.095371336,-0.077121735,0.10377073
1828,3.6751367,-0.1295798,-0.053908858,0.10743593
1829,3.6771367,-0.16562083,-0.032528576,0.11415544
1830,3.6791367,-0.18150334,-0.022143865,0.11354458
1831,3.6811366,-0.24075727,0.015118915,0.11782064
1832,3.6831359,-0.26091582,0.027336219,0.1184315
1833,3.685135,-0.27863091,0.038942661,0.11904237
1834,3.6871342,-0.32139146,0.06093381,0.11965323
1835,3.6891333,-0.36293033,0.084757552,0.11782064
1836,3.6911334,-0.40385827,0.11163563,0.1165989
1837,3.6931334,-0.42157337,0.12202033,0.11537717
1838,3.6951334,-0.46433395,0.14401148,0.10865766
1839,3.6971335,-0.48265991,0.15317446,0.10743593
1840,3.6991335,-0.51625746,0.17027868,0.10193814
1841,3.7011335,-0.55168766,0.17638734,0.098272949
1842,3.7031344,-0.57062447,0.18127427,0.09399689
1843,3.7051351,-0.60361123,0.18677205,0.090942562
1844,3.7071355,-0.63720882,0.18677205,0.08666651
1845,3.7091355,-0.6518696,0.18493946,0.086055644
1846,3.7111355,-0.68607801,0.17516561,0.079946987
1847,3.7131351,-0.71845388,0.16905695,0.076281801
1848,3.7151351,-0.73433638,0.16294831,0.076892659
1849,3.7171351,-0.76671225,0.14828753,0.072616607
1850,3.719135,-0.79786634,0.13423763,0.070173144
1851,3.721135,-0.8308531,0.12385293,0.068340547
1852,3.7231341,-0.84734643,0.11896601,0.06650795
1853,3.7251332,-0.87727886,0.10919216,0.060399301
1854,3.7271323,-0.89132875,0.10613783,0.05917757
1855,3.7291314,-0.92126113,0.098807454,0.049403727
1856,3.7311319,-0.94936097,0.096974857,0.038408153
1857,3.733132,-0.96218914,0.09514226,0.031077769
1858,3.735132,-0.99212152,0.09941832,0.018249599
1859,3.737132,-1.0153344,0.10613783,0.0005345071
1860,3.7391321,-1.0312169,0.11468995,-0.0074067409
1861,3.7411321,-1.0587058,0.12568553,-0.026343564
1862,3.7431329,-1.0745883,0.1647809,-0.094149604
1863,3.7451338,-1.0837513,0.20387627,-0.14485142
1864,3.7471346,-1.1100185,0.28389964,-0.22670737
1865,3.7491355,-1.1277336,0.34254268,-0.26397014
1866,3.7511354,-1.1399509,0.36575556,-0.2401464
1867,3.7531354,-1.1478921,0.3669773,-0.21754439
1868,3.7551354,-1.1735485,0.33948836,-0.15829046
1869,3.7571353,-1.1912636,0.3193298,-0.12835807
1870,3.7591353,-1.2297481,0.27473664,-0.083764896
1871,3.7611353,-1.2657892,0.22892176,-0.061162882
1872,3.7631344,-1.2835042,0.20570888,-0.059330288
1873,3.7651335,-1.3103824,0.16050485,-0.066049807
1874,3.7671327,-1.3219887,0.14584407,-0.074601918
1875,3.7691318,-1.343369,0.1085813,-0.098425664
1876,3.771131,-1.3531429,0.085979283,-0.12530373
1877,3.773131,-1.3549755,0.075594574,-0.13996451
1878,3.775131,-1.3610841,0.066431597,-0.16928603
1879,3.777131,-1.3653601,0.065209866,-0.19555324
1880,3.779131,-1.3684145,0.063377269,-0.2083814
1881,3.781131,-1.370858,0.077427171,-0.26335928
1882,3.7831319,-1.3714688,0.08781188,-0.30795243
1883,3.7851328,-1.3714688,0.10980303,-0.35987598
1884,3.7871337,-1.3806318,0.15378532,-0.43379068
1885,3.7891346,-1.3763558,0.19043724,-0.47960559
1886,3.7911341,-1.3720797,0.21242839,-0.49060115
1887,3.7931341,-1.3696363,0.21914791,-0.48327076
1888,3.7951341,-1.370858,0.22647829,-0.46005788
1889,3.7971341,-1.3739123,0.22525656,-0.446008
1890,3.7991341,-1.3849078,0.21303925,-0.41363212
1891,3.801134,-1.4044555,0.18432859,-0.38308886
1892,3.8031332,-1.416062,0.1647809,-0.36964983
1893,3.8051323,-1.4447727,0.11957687,-0.34949127
1894,3.8071322,-1.4765377,0.068264194,-0.34338263
1895,3.8091322,-1.4918092,0.037110064,-0.34399348
1896,3.8111323,-1.533959,-0.06612616,-0.3580434
1897,3.8131323,-1.5455655,-0.10461067,-0.36415204
1898,3.8151323,-1.5583936,-0.14798211,-0.37148243
1899,3.8171324,-1.5742761,-0.24144448,-0.39041924
1900,3.8191324,-1.5840499,-0.33307427,-0.40691262
1901,3.8211324,-1.5907694,-0.42959097,-0.42218423
1902,3.8231333,-1.5950456,-0.47418416,-0.43317983
1903,3.8251342,-1.5938238,-0.56642479,-0.446008
1904,3.8271351,-1.5901586,-0.61773747,-0.45578182
1905,3.829136,-1.5797739,-0.71303248,-0.46799913
1906,3.8311368,-1.5675566,-0.805884,-0.48510337
1907,3.8331369,-1.5590044,-0.85047716,-0.49365547
1908,3.8351369,-1.5437329,-0.93783087,-0.50587279
1909,3.8371369,-1.5321264,-1.018465,-0.51625746
1910,3.8391369,-1.5254068,-1.0575604,-0.52236617
1911,3.8411369,-1.5168548,-1.1241448,-0.53030741
1912,3.843136,-1.45699,-1.0147998,-0.53030741
1913,3.8451351,-1.3464234,-0.75151694,-0.5052619
1914,3.8471357,-1.1210141,-0.17730364,-0.50159675
1915,3.8491357,-1.0232756,0.13057245,-0.52847481
1916,3.8511356,-1.0073931,0.31322116,-0.53213996
1917,3.8531357,-1.0098366,0.3914119,-0.52908564
1918,3.8551356,-1.0367147,0.48181996,-0.52786392
1919,3.8571356,-1.0629818,0.48243082,-0.53213996
1920,3.8591357,-1.130788,0.39019018,-0.53763777
1921,3.8611357,-1.2022592,0.22220223,-0.53580517
1922,3.8631366,-1.2352459,0.11835514,-0.53152913
1923,3.8651375,-1.2975541,-0.10094548,-0.52175528
1924,3.8671375,-1.3549755,-0.31719178,-0.50892711
1925,3.8691375,-1.37941,-0.40821069,-0.50098586
1926,3.8711375,-1.4343879,-0.58291817,-0.49548808
1927,3.8731375,-1.4893658,-0.73441273,-0.49487722
1928,3.8751375,-1.515633,-0.80527312,-0.4985424
1929,3.8771375,-1.5700001,-0.95432425,-0.50953799
1930,3.8791374,-1.620091,-1.109484,-0.52969652
1931,3.8811374,-1.6555212,-1.2609786,-0.54863334
1932,3.8831365,-1.6665168,-1.3440562,-0.56268322
1933,3.8851356,-1.6756797,-1.4167492,-0.577344
1934,3.8871347,-1.6805667,-1.5511396,-0.60116774
1935,3.8891339,-1.674458,-1.6635388,-0.62315893
1936,3.8911339,-1.6500233,-1.7417295,-0.6475935
1937,3.8931342,-1.6280322,-1.7704402,-0.65492392
1938,3.8951343,-1.5791631,-1.8193095,-0.67080641
1939,3.8971343,-1.52052,-1.8632917,-0.68058026
1940,3.8991343,-1.4893658,-1.8828394,-0.68180197
1941,3.9011352,-1.420338,-1.9201022,-0.68729979
1942,3.9031361,-1.352532,-1.9573649,-0.68424541
1943,3.9051369,-1.3183236,-1.9817996,-0.68119109
1944,3.9071363,-1.2596805,-2.0221167,-0.67691505
1945,3.9091363,-1.2340242,-2.0502164,-0.67874765
1946,3.9111363,-1.1662182,-2.124742,-0.67386073
1947,3.9131362,-1.1478921,-2.1430681,-0.67386073
1948,3.9151362,-1.1332314,-2.1613939,-0.67691505
1949,3.9171362,-1.1045207,-2.1876612,-0.67691505
1950,3.9191362,-1.0831405,-2.2133174,-0.68302369
1951,3.9211361,-1.0684797,-2.2267566,-0.69035411
1952,3.9231352,-1.0605384,-2.2261457,-0.69401926
1953,3.9251343,-1.0525972,-2.2041545,-0.7001279
1954,3.9271334,-1.0464885,-2.1864395,-0.704404
1955,3.9291325,-1.0385473,-2.1259637,-0.71112353
1956,3.9311316,-1.0324386,-2.0392208,-0.71539956
1957,3.9331315,-1.0299952,-1.9854648,-0.72028649
1958,3.9351315,-1.0202214,-1.8504635,-0.72761685
1959,3.9371316,-1.0061715,-1.6885842,-0.7373907
1960,3.9391316,-0.99945188,-1.6018413,-0.74166679
1961,3.9411316,-0.97257382,-1.3532193,-0.75388408
1962,3.9431325,-0.96279997,-1.2774719,-0.75327319
1963,3.9451334,-0.95241529,-1.2114985,-0.75327319
1964,3.9471343,-0.92553723,-1.096045,-0.74777544
1965,3.9491352,-0.90232432,-1.0025826,-0.74044502
1966,3.9511352,-0.8797223,-0.92561358,-0.73067117
1967,3.9531347,-0.87178105,-0.8938486,-0.72761685
1968,3.9551346,-0.85773116,-0.83825982,-0.71601045
1969,3.9571346,-0.85345513,-0.81993389,-0.71173435
1970,3.9591346,-0.84978992,-0.79305583,-0.69768447
1971,3.9611337,-0.84795731,-0.78267109,-0.68058026
1972,3.963133,-0.84917903,-0.78389281,-0.67141724
1973,3.9651321,-0.85589856,-0.79672098,-0.65248042
1974,3.9671313,-0.85773116,-0.81810129,-0.62621325
1975,3.9691304,-0.86078548,-0.83276206,-0.6164394
1976,3.9711296,-0.86383981,-0.86880308,-0.58956134
1977,3.9731296,-0.86383981,-0.91278541,-0.56268322
1978,3.9751297,-0.86445069,-0.93538743,-0.54680073
1979,3.9771297,-0.86567241,-0.98364574,-0.51747924
1980,3.9791297,-0.86506152,-1.0361801,-0.48876855
1981,3.9811298,-0.86811584,-1.081995,-0.46311221
1982,3.9831307,-0.86567241,-1.1070405,-0.45150578
1983,3.9851315,-0.8662833,-1.1534663,-0.43256894
1984,3.9871324,-0.86383981,-1.1742357,-0.42279512
1985,3.9891333,-0.86383981,-1.2176071,-0.40385827
1986,3.9911341,-0.8601746,-1.2652546,-0.38858664
1987,3.9931341,-0.85956377,-1.2848023,-0.38003454
1988,3.9951341,-0.85345513,-1.3287846,-0.36354119
1989,3.9971341,-0.84734643,-1.372767,-0.34765869
1990,3.9991341,-0.8442921,-1.3904821,-0.33910656
1991,4.001134,-0.83879435,-1.4216361,-0.32566753
1992,4.0031331,-0.83329654,-1.4362969,-0.31161764
1993,4.0051331,-0.8308531,-1.4338534,-0.30306551
1994,4.0071331,-0.82596618,-1.4246905,-0.29634601
1995,4.009133,-0.81558144,-1.4100296,-0.29145908
1996,4.011133,-0.80580759,-1.3843733,-0.28840476
1997,4.013133,-0.7960338,-1.3715452,-0.29145908
1998,4.0151331,-0.78198385,-1.3348932,-0.28962648
1999,4.0171331,-0.77465349,-1.3153456,-0.29084823
2000,4.0191331,-0.75388408,-1.2805263,-0.2945134
2001,4.0211332,-0.73311466,-1.2347114,-0.29940033
2002,4.023134,-0.72334081,-1.2108877,-0.30184379
2003,4.0251349,-0.7001279,-1.1614076,-0.30795243
2004,4.0271358,-0.67752594,-1.1125383,-0.31406111
2005,4.0291366,-0.66591948,-1.0874928,-0.31711543
2006,4.0311375,-0.64087403,-1.041678,-0.32444581
2007,4.0331374,-0.61827201,-0.99036527,-0.33055446
2008,4.0351374,-0.60238951,-0.96715242,-0.33483052
2009,4.0371374,-0.58100921,-0.92072666,-0.33727399
2010,4.0391373,-0.56146151,-0.87552261,-0.34460434
2011,4.0411373,-0.53947037,-0.83154029,-0.34826955
2012,4.0431364,-0.53213996,-0.81199265,-0.34826955
2013,4.0451355,-0.52358788,-0.79549927,-0.35071301
2014,4.0471356,-0.50892711,-0.75518215,-0.34826955
2015,4.0491356,-0.49609894,-0.72586066,-0.34460434
2016,4.0511356,-0.48632509,-0.6947065,-0.33971745
2017,4.0531357,-0.47777298,-0.68493265,-0.33788484
2018,4.0551357,-0.47166434,-0.65988719,-0.33299792
2019,4.0571357,-0.46860999,-0.65011334,-0.32627839
2020,4.0591358,-0.46311221,-0.62995476,-0.32139146
2021,4.0611358,-0.45578182,-0.61590487,-0.31100675
2022,4.0631366,-0.45333838,-0.60796362,-0.30978504
2023,4.0651366,-0.44539711,-0.59757894,-0.29878947
2024,4.0671366,-0.43867761,-0.5871942,-0.29084823
2025,4.0691366,-0.43562329,-0.58169645,-0.28718302
2026,4.0711366,-0.42218423,-0.57558775,-0.27374399
2027,4.0731371,-0.41607559,-0.5737552,-0.26946792
2028,4.0751371,-0.41302127,-0.57253343,-0.26397014
2029,4.077137,-0.39774963,-0.56642479,-0.25847235
2030,4.079137,-0.3843106,-0.56092703,-0.24930938
2031,4.081137,-0.36537376,-0.55726182,-0.24564418
2032,4.083136,-0.35682166,-0.55298579,-0.24197899
2033,4.0851351,-0.33605224,-0.54932058,-0.23525947
2034,4.0871342,-0.32322407,-0.54748797,-0.23587035
2035,4.0891333,-0.30123293,-0.54015762,-0.23281601
2036,4.0911333,-0.27191138,-0.53099459,-0.22853996
2037,4.0931333,-0.2596941,-0.52732944,-0.2260965
2038,4.0951334,-0.23037256,-0.51633388,-0.2224313
2039,4.0971334,-0.20044015,-0.5016731,-0.21937698
2040,4.0991334,-0.1821142,-0.49373183,-0.21632266
2041,4.1011332,-0.14851661,-0.47601673,-0.21326832
2042,4.1031339,-0.11491902,-0.4625777,-0.20777054
2043,4.1051348,-0.10025826,-0.45097128,-0.20471622
2044,4.1071348,-0.062384613,-0.43142357,-0.1998293
2045,4.1091348,-0.026343564,-0.40698898,-0.19738583
2046,4.1111348,0.007254025,-0.38438696,-0.19249891
2047,4.1131347,0.024969118,-0.3727805,-0.18883371
2048,4.1151347,0.05551238,-0.35445455,-0.18089247
2049,4.1171347,0.07078401,-0.34284812,-0.17478381
2050,4.1191346,0.10010554,-0.31719178,-0.16256651
2051,4.1211346,0.1288162,-0.29642236,-0.15157095
2052,4.1231338,0.14408784,-0.28298333,-0.14668402
2053,4.1251329,0.16974418,-0.25427267,-0.13568844
2054,4.1271321,0.19478965,-0.22617286,-0.12530373
2055,4.1291313,0.20700696,-0.21212296,-0.12041681
2056,4.1311313,0.2308307,-0.18219055,-0.11125384
2057,4.1331313,0.25404358,-0.15225816,-0.10697778
2058,4.1351314,0.2680935,-0.1375974,-0.10636691
2059,4.1371314,0.28703031,-0.10155635,-0.098425664
2060,4.1391314,0.30596712,-0.069180489,-0.094149604
2061,4.1411314,0.32734743,-0.03924809,-0.094149604
2062,4.1431323,0.33651039,-0.025198191,-0.091095276
2063,4.1451331,0.35911241,0.00290161,-0.093538739
2064,4.147134,0.3646102,0.016951511,-0.092927873
2065,4.1491349,0.38537961,0.043829583,-0.091095276
2066,4.1511349,0.40492731,0.073761977,-0.095371336
2067,4.1531348,0.41347942,0.084757552,-0.098425664
2068,4.1551348,0.43302709,0.10369437,-0.10086913
2069,4.1571348,0.45562911,0.12507465,-0.10147999
2070,4.1591347,0.4629595,0.13484851,-0.10392345
2071,4.161135,0.48311806,0.15195273,-0.10514518
2072,4.1631343,0.49533537,0.15928312,-0.10575604
2073,4.1651334,0.51610476,0.16905695,-0.10942124
2074,4.1671325,0.53748506,0.18127427,-0.10453431
2075,4.1691316,0.54664803,0.18493946,-0.1100321
2076,4.1711311,0.57841301,0.18982637,-0.10881037
2077,4.1731308,0.59185207,0.1910481,-0.11125384
2078,4.1751308,0.61262149,0.18921551,-0.10942124
2079,4.1771308,0.62361705,0.18799378,-0.1100321
2080,4.1791309,0.64499736,0.18005253,-0.10819951
2081,4.1811309,0.66515589,0.17455475,-0.10514518
2082,4.1831318,0.67554063,0.16844609,-0.10209085
2083,4.1851327,0.69264483,0.15500705,-0.099647395
2084,4.1871335,0.70425129,0.14523321,-0.096593067
2085,4.1891343,0.72440982,0.12690726,-0.092927873
2086,4.1911343,0.74212492,0.11041389,-0.090484418
2087,4.1931343,0.75312048,0.097585723,-0.089873552
2088,4.1951342,0.76717037,0.08353582,-0.083764896
2089,4.1971342,0.78183115,0.064599,-0.075212784
2090,4.1991342,0.79038328,0.057879481,-0.072769322
2091,4.2011342,0.81176353,0.035277467,-0.051389039
2092,4.2031334,0.81726134,0.031001411,-0.043447789
2093,4.2051334,0.82092655,0.026725354,-0.036117408
2094,4.2071334,0.8307004,0.013897184,-0.020845776
2095,4.2091335,0.83741987,0.0059559359,-0.0037415496
2096,4.2111335,0.84047425,0.00045814895,0.016417004
2097,4.2131335,0.84047425,0.0010690142,0.023747386
2098,4.2151336,0.84230679,-0.0044287732,0.037186421
2099,4.2171336,0.84230679,-0.00015271631,0.043295074
2100,4.2191336,0.83680904,0.0083993971,0.057344973
2101,4.2211336,0.83436555,0.020616703,0.074449204
2102,4.2231344,0.82947862,0.031001411,0.083001316
2103,4.2251352,0.8264243,0.044440448,0.097662084
2104,4.2271361,0.82275915,0.070707649,0.11476631
2105,4.229137,0.81909394,0.08353582,0.12087496
2106,4.2311375,0.81481791,0.12812899,0.14347698
2107,4.2331379,0.80932009,0.14095716,0.14958562
2108,4.2351379,0.80687666,0.15378532,0.15447254
2109,4.2371378,0.79588103,0.18005253,0.16546813
2110,4.2391378,0.78671807,0.20937407,0.17035505
2111,4.2411378,0.77938771,0.24358252,0.1782963
2112,4.2431369,0.77511162,0.26251933,0.18318321
2113,4.245136,0.76900297,0.29733866,0.19845484
2114,4.247136,0.7604509,0.31444287,0.20395264
2115,4.249136,0.74945527,0.33582318,0.22288945
2116,4.251136,0.73540539,0.35048392,0.23877195
2117,4.2531361,0.72563154,0.35414913,0.24182628
2118,4.2551361,0.70608389,0.35414913,0.25221097
2119,4.2571361,0.67981666,0.34315357,0.25587618
2120,4.2591362,0.66821021,0.33765575,0.25587618
2121,4.2611362,0.63705611,0.31566462,0.25465444
2122,4.263137,0.6120106,0.28206703,0.24732406
2123,4.2651361,0.59612811,0.25824329,0.23938282
2124,4.2671361,0.56802833,0.20815234,0.22288945
2125,4.269136,0.53809595,0.14950927,0.20578523
2126,4.271136,0.50938523,0.078648902,0.18807013
2127,4.273136,0.49533537,0.038942661,0.17524196
2128,4.2751359,0.4647921,-0.042913284,0.14530957
2129,4.2771359,0.44890961,-0.086895578,0.13064881
2130,4.2791359,0.4189772,-0.17547104,0.097051218
2131,4.281136,0.38476875,-0.26893342,0.061621033
2132,4.2831351,0.36583191,-0.31474832,0.046349399
2133,4.2851343,0.32856914,-0.4167628,0.015195273
2134,4.2871335,0.31513011,-0.46685377,-0.004352415
2135,4.2891326,0.25526533,-0.50533825,-0.020234911
2136,4.2911327,0.21311562,-0.52427512,-7.6358156e-05
2137,4.2931326,0.16791159,-0.59880066,-0.025121834
2138,4.2951327,0.14592044,-0.63239825,-0.050167307
2139,4.2971327,0.095829487,-0.68371093,-0.1118647
2140,4.2991327,0.037797287,-0.72402805,-0.17478381
2141,4.3011327,-0.024510968,-0.73746705,-0.22548564
2142,4.3031335,-0.055665094,-0.73868883,-0.24686591
2143,4.3051344,-0.11858422,-0.71119988,-0.2841287
2144,4.3071344,-0.15157095,-0.68920869,-0.30306551
2145,4.3091344,-0.21754439,-0.62873304,-0.32627839
2146,4.3111343,-0.27679831,-0.57680953,-0.34582609
2147,4.3131339,-0.30734158,-0.54993147,-0.35682166
2148,4.3151339,-0.36231944,-0.49128836,-0.37820193
2149,4.3171339,-0.3843106,-0.46624291,-0.38736492
2150,4.3191337,-0.42707115,-0.42287147,-0.41363212
2151,4.3211337,-0.45639271,-0.39293906,-0.44112107
2152,4.3231328,-0.46738827,-0.37827832,-0.45883617
2153,4.3251328,-0.47777298,-0.3575089,-0.48999029
2154,4.327132,-0.48571423,-0.34712419,-0.52175528
2155,4.3291312,-0.48510337,-0.3465133,-0.53519434
2156,4.3311312,-0.47044259,-0.3184135,-0.56146151
2157,4.3331312,-0.46311221,-0.3135266,-0.56940275
2158,4.3351313,-0.45822528,-0.30192015,-0.57367885
2159,4.3371313,-0.44234279,-0.29153544,-0.59139389
2160,4.3391313,-0.4264603,-0.29642236,-0.60727644
2161,4.3411313,-0.4105778,-0.31230485,-0.62193716
2162,4.3431322,-0.40385827,-0.33001995,-0.62560236
2163,4.345133,-0.39469531,-0.38133264,-0.6341545
2164,4.3471338,-0.39164099,-0.40943244,-0.63904142
2165,4.3491347,-0.38675407,-0.46929723,-0.64270657
2166,4.3511346,-0.38919753,-0.51999903,-0.64820439
2167,4.3531346,-0.39041924,-0.54504454,-0.65003699
2168,4.3551346,-0.39041924,-0.58902681,-0.6518696
2169,4.3571346,-0.39225185,-0.63178736,-0.65431303
2170,4.3591346,-0.39347357,-0.64950246,-0.65492392
2171,4.3611346,-0.38858664,-0.67882401,-0.65858907
2172,4.3631337,-0.38736492,-0.68371093,-0.65919995
2173,4.3651328,-0.38308886,-0.68065661,-0.65797824
2174,4.367132,-0.37026069,-0.66233063,-0.65309131
2175,4.3691311,-0.34826955,-0.62934393,-0.64698267
2176,4.3711302,-0.31894803,-0.5871942,-0.63354361
2177,4.3731302,-0.29512426,-0.56337047,-0.62560236
2178,4.3751302,-0.24747679,-0.5132795,-0.60849816
2179,4.3771303,-0.21998784,-0.48579058,-0.59628081
2180,4.3791304,-0.15645786,-0.42653665,-0.5755114
2181,4.3811304,-0.089262687,-0.36972618,-0.55290943
2182,4.3831313,-0.050778173,-0.34406984,-0.54313558
2183,4.3851322,0.031688634,-0.28787026,-0.51564664
2184,4.3871331,0.11110111,-0.24327709,-0.49121201
2185,4.3891339,0.15263996,-0.2218968,-0.47655123
2186,4.3911339,0.23938282,-0.18585575,-0.44722971
2187,4.3931339,0.32184961,-0.15531249,-0.40935606
2188,4.3951338,0.36583191,-0.14614952,-0.39041924
2189,4.3971338,0.44402269,-0.13148874,-0.34643695
2190,4.3991338,0.51732653,-0.12232576,-0.30001119
2191,4.4011337,0.58635426,-0.12782355,-0.25236371
2192,4.4031328,0.6138432,-0.13148874,-0.23098342
2193,4.4051329,0.67004281,-0.14676037,-0.1821142
2194,4.4071329,0.69569916,-0.15836681,-0.15951219
2195,4.4091329,0.73784888,-0.18096884,-0.11675162
2196,4.411133,0.77327907,-0.20906863,-0.073380187
2197,4.413133,0.78488547,-0.22495113,-0.053221636
2198,4.415133,0.80993098,-0.25121832,-0.014737124
2199,4.4171331,0.82825691,-0.2695443,0.022525655
2200,4.4191331,0.83375472,-0.27565295,0.039019018
2201,4.4211331,0.84780461,-0.27931812,0.073227473
2202,4.423134,0.85391325,-0.26648995,0.10315987
2203,4.4251348,0.85880017,-0.25549439,0.11904237
2204,4.4271357,0.86429799,-0.2218968,0.15141822
2205,4.4291365,0.87040663,-0.17058411,0.18318321
2206,4.4311374,0.88018048,-0.099112883,0.2167808
2207,4.4331378,0.8832348,-0.056963183,0.23205243
2208,4.4351378,0.8966738,0.040164389,0.26687175
2209,4.4371377,0.9027825,0.093920529,0.28703031
2210,4.4391377,0.9180541,0.21120666,0.31757358
2211,4.4411377,0.93454748,0.33826664,0.35117117
2212,4.4431368,0.94309956,0.40485093,0.37071884
2213,4.4451358,0.95287341,0.53252178,0.40492731
2214,4.4471358,0.96081465,0.66202521,0.42142066
2215,4.4491358,0.96142554,0.72066826,0.45807257
2216,4.4511358,0.95470601,0.83184576,0.49167016
2217,4.4531358,0.94859737,0.88193667,0.50510919
2218,4.4551359,0.92721707,0.97417736,0.53076553
2219,4.4571359,0.89300865,1.0596985,0.55092412
2220,4.4591359,0.87040663,1.0963504,0.55031323
2221,4.461136,0.78305286,1.1971432,0.52710032
2222,4.4631374,0.74640095,1.2227995,0.50999612
2223,4.4651374,0.70547301,1.2454015,0.48433977
2224,4.4671373,0.62056273,1.2728904,0.42325327
2225,4.4691373,0.53931767,1.2600623,0.36033413
2226,4.4711373,0.46906814,1.2087497,0.29985848
2227,4.4731369,0.4385249,1.1702651,0.27420214
2228,4.4751368,0.38293615,1.0963504,0.23327416
2229,4.4771368,0.36155587,1.0596985,0.21739167
2230,4.4791368,0.32856914,0.98395121,0.19295706
2231,4.4811368,0.30963233,0.925919,0.1727985
2232,4.4831359,0.30596712,0.89904094,0.1642464
2233,4.4851351,0.30413455,0.86116725,0.15325081
2234,4.4871343,0.31329751,0.83978701,0.14775303
2235,4.4891334,0.3224605,0.8361218,0.14592044
2236,4.4911335,0.36399934,0.84833908,0.15080735
2237,4.4931335,0.37927097,0.8556695,0.15874861
2238,4.4951335,0.39698604,0.87460631,0.16730072
2239,4.4971336,0.4366923,0.91981035,0.18501581
2240,4.4991336,0.47212249,0.97723168,0.20517437
2241,4.5011336,0.50327659,1.0432051,0.23510677
2242,4.5031339,0.51915908,1.0792462,0.24976753
2243,4.5051348,0.54481542,1.1433871,0.28397599
2244,4.5071348,0.55092412,1.1696543,0.30046934
2245,4.5091348,0.56741744,1.2166909,0.33101261
2246,4.5111348,0.57596958,1.2454015,0.3664428
2247,4.5131348,0.57658041,1.2576188,0.38110355
2248,4.5151348,0.57719129,1.2631166,0.4104251
2249,4.5171347,0.57841301,1.2563971,0.44646615
2250,4.5191347,0.58024561,1.2490667,0.46418121
2251,4.5211347,0.58268911,1.238682,0.50510919
2252,4.5231333,0.58818686,1.2136365,0.54053938
2253,4.5251324,0.59124118,1.2056953,0.55153495
2254,4.5271315,0.59979331,1.1769847,0.56802833
2255,4.5291306,0.61445409,1.1501065,0.57535869
2256,4.5311307,0.63278002,1.125061,0.58391082
2257,4.5331309,0.64316475,1.1177307,0.58818686
2258,4.5351309,0.67187542,1.1067351,0.59368467
2259,4.5371309,0.6859253,1.0994047,0.59551728
2260,4.539131,0.72074461,1.0975721,0.60162592
2261,4.541131,0.75556397,1.0975721,0.60895628
2262,4.5431319,0.77083558,1.1024591,0.61017799
2263,4.5451327,0.80137885,1.1146764,0.62422794
2264,4.5471336,0.82398087,1.1360567,0.64377558
2265,4.5491344,0.83558732,1.1464413,0.65660375
2266,4.5511344,0.85024804,1.1702651,0.69020134
2267,4.5531343,0.85757846,1.1965322,0.72440982
2268,4.5551343,0.85635674,1.2099713,0.74395752
2269,4.5571343,0.85208064,1.2289082,0.77816594
2270,4.5591343,0.84291768,1.2490667,0.80260056
2271,4.5611343,0.82825691,1.2698362,0.82398087
2272,4.563134,0.81848305,1.2820535,0.83253294
2273,4.5651331,0.8087092,1.2869403,0.83680904
2274,4.5671323,0.78549635,1.3016012,0.84169596
2275,4.5691315,0.76411605,1.3070989,0.83314383
2276,4.5711309,0.73907059,1.3107641,0.80626577
2277,4.5731309,0.72807503,1.3119859,0.791605
2278,4.5751309,0.70669472,1.3156511,0.74762273
2279,4.5771309,0.68714702,1.3156511,0.69936436
2280,4.5791309,0.67981666,1.3180945,0.66943192
2281,4.5811309,0.66087985,1.324814,0.6181193
2282,4.5831315,0.65354943,1.3284792,0.58696514
2283,4.5851324,0.6333909,1.3351988,0.53381985
2284,4.5871332,0.6181193,1.3492486,0.47945285
2285,4.5891341,0.61078888,1.3553573,0.45562911
2286,4.591134,0.59124118,1.3736832,0.37866008
2287,4.593134,0.58574343,1.3828462,0.35422549
2288,4.595134,0.58329993,1.3913983,0.33040175
2289,4.5971339,0.57535869,1.4091134,0.28336513
2290,4.5991339,0.56986094,1.4164438,0.23755023
2291,4.6011339,0.56741744,1.4036156,0.19112447
2292,4.603133,0.56741744,1.3956743,0.17340937
2293,4.6051329,0.57413697,1.3620768,0.13309227
2294,4.6071329,0.57658041,1.3425291,0.11476631
2295,4.609133,0.58207822,1.2961034,0.081779584
2296,4.611133,0.58818686,1.2508993,0.057344973
2297,4.613133,0.58879775,1.229519,0.046960264
2298,4.6151331,0.58818686,1.1928672,0.037797287
2299,4.6171331,0.58757603,1.1635456,0.037797287
2300,4.6191331,0.58940858,1.1476631,0.040851612
2301,4.6211331,0.58452171,1.1024591,0.064675361
2302,4.6231337,0.58452171,1.0816896,0.07506007
2303,4.6251345,0.58757603,1.0639745,0.08666651
2304,4.6271353,0.58757603,1.02549,0.10377073
2305,4.6291362,0.58329993,0.98578382,0.12759447
2306,4.6311368,0.57841301,0.94607753,0.15080735
2307,4.6331367,0.57474786,0.93141681,0.15935947
2308,4.6351367,0.56375223,0.90453869,0.18012889
2309,4.6371367,0.55825448,0.89659745,0.18929186
2310,4.6391367,0.55092412,0.86055642,0.19784398
2311,4.6411368,0.55581099,0.8031351,0.20212004
2312,4.6431362,0.56008708,0.77137011,0.2008983
2313,4.6451354,0.56680661,0.70600748,0.19478965
2314,4.6471346,0.56863916,0.64614272,0.18868101
2315,4.6491346,0.56863916,0.61804289,0.18379408
2316,4.6511346,0.55886537,0.56917369,0.18807013
2317,4.6531349,0.54115027,0.54290646,0.18318321
2318,4.6551349,0.52710032,0.54290646,0.18318321
2319,4.6571349,0.49350277,0.57039541,0.18807013
2320,4.6591349,0.4452444,0.64003408,0.19906572
2321,4.6611349,0.40065125,0.71639222,0.21250474
2322,4.6631354,0.38049269,0.75365502,0.2186134
2323,4.6651354,0.34322992,0.82329363,0.22533292
2324,4.6671354,0.32795829,0.85444778,0.23144157
2325,4.6691353,0.30169109,0.91125822,0.22838724
2326,4.6711353,0.28458685,0.96318179,0.22227859
2327,4.6731353,0.27847821,0.98334032,0.21494821
2328,4.6751352,0.27053696,1.021214,0.19967657
2329,4.6771352,0.26626089,1.0499246,0.18012889
2330,4.6791352,0.26565003,1.0670289,0.16730072
2331,4.6811351,0.26503915,1.0914634,0.1428661
2332,4.6831346,0.26381743,1.1183416,0.12698361
2333,4.6851337,0.26503915,1.1287262,0.099494673
2334,4.6871329,0.26442829,1.1452196,0.065286227
2335,4.689132,0.26626089,1.1507174,0.049403727
2336,4.6911321,0.26442829,1.1592696,-0.0067958757
2337,4.6931321,0.2680935,1.1604912,-0.025121834
2338,4.6951321,0.26381743,1.1580478,-0.065438941
2339,4.6971322,0.26076311,1.156826,-0.081932299
2340,4.6991322,0.25587618,1.1519392,-0.11675162
2341,4.7011318,0.24976753,1.1378893,-0.14546229
2342,4.7031327,0.2485458,1.1311697,-0.15767959
2343,4.7051335,0.23938282,1.1146764,-0.17539468
2344,4.7071343,0.23388503,1.098183,-0.19066632
2345,4.7091343,0.23021984,1.08902,-0.19677497
2346,4.7111343,0.22838724,1.0694723,-0.20532708
2347,4.7131342,0.22472206,1.0542006,-0.21265747
2348,4.7151342,0.22472206,1.043816,-0.21571179
2349,4.7171343,0.22777638,1.0309879,-0.21754439
2350,4.7191344,0.22899811,1.0261009,-0.21510093
2351,4.7211344,0.23999368,0.99677938,-0.2138792
2352,4.723134,0.2448806,0.98822725,-0.21326832
2353,4.7251332,0.24915667,0.97662079,-0.20715968
2354,4.7271323,0.25404358,0.94913185,-0.20166188
2355,4.7291315,0.26381743,0.91797775,-0.19005544
2356,4.7311307,0.27053696,0.88499105,-0.17905988
2357,4.7331307,0.27603474,0.86849767,-0.17356209
2358,4.7351307,0.28336513,0.83001316,-0.16195565
2359,4.7371307,0.28641945,0.81535238,-0.15401439
2360,4.7391307,0.29313895,0.7811439,-0.13752104
2361,4.7411307,0.30169109,0.75487673,-0.1259146
2362,4.7431315,0.30413455,0.74449199,-0.11919508
2363,4.7451324,0.30902144,0.72250086,-0.1100321
2364,4.7471332,0.31696269,0.70173144,-0.096593067
2365,4.7491341,0.31879529,0.69623369,-0.086819224
2366,4.751134,0.32307136,0.67179906,-0.058719423
2367,4.7531337,0.3224605,0.66569042,-0.048334714
2368,4.7551337,0.32184961,0.65897089,-0.039782599
2369,4.7571337,0.3206279,0.64064491,-0.01779145
2370,4.7591336,0.3206279,0.62598413,-0.0012980887
2371,4.761134,0.31757358,0.59666264,0.016417004
2372,4.7631331,0.32123876,0.58261275,0.02069306
2373,4.7651322,0.32734743,0.55817813,0.038408153
2374,4.7671314,0.32979086,0.54412824,0.045738537
2375,4.7691306,0.33589953,0.52274793,0.058566704
2376,4.7711297,0.33956471,0.50197852,0.073838338
2377,4.7731298,0.34506249,0.49586987,0.079336122
2378,4.7751298,0.34811684,0.48792863,0.089109965
2379,4.7771298,0.35178202,0.48609602,0.10315987
2380,4.7791297,0.34933856,0.49159381,0.10804679
2381,4.7811297,0.34811684,0.50625455,0.12148582
