,gyr_time,gyrX,gyrY,gyrZ
0,0.021378579,0.00099265599,-0.023823744,-0.0064904434
1,0.023378579,0.00099265599,-0.023823744,-0.0064904434
2,0.025379579,0.00099265599,-0.023823744,-0.0064904434
3,0.027385579,0.00099265599,-0.023823744,-0.0064904434
4,0.029378245,-0.00022907447,-0.024434609,-0.0071013086
5,0.031378495,-0.0020616702,-0.025045475,-0.0064904434
6,0.033378695,-0.001450805,-0.025045475,-0.0052687125
7,0.035378861,-0.0026725354,-0.025656341,-0.0064904434
8,0.037379003,-0.003894266,-0.027488936,-0.0058795782
9,0.039379128,-0.0020616702,-0.026267206,-0.0058795782
10,0.041379128,-0.0045051314,-0.020769419,-0.0071013086
11,0.043377928,-0.0045051314,-0.021380283,-0.0064904434
12,0.045377928,-0.0045051314,-0.020158553,-0.0071013086
13,0.047377928,-0.0051159966,-0.018325957,-0.0071013086
14,0.049376466,-0.0057268618,-0.017715093,-0.0052687125
15,0.051376466,-0.0057268618,-0.019547688,-0.0071013086
16,0.053376466,-0.0069485921,-0.017715093,-0.0077121737
17,0.055376466,-0.0057268618,-0.014660766,-0.0052687125
18,0.057376524,-0.0057268618,-0.014660766,-0.0058795782
19,0.059376579,-0.0081703225,-0.016493361,-0.0083230389
20,0.061376631,-0.0075594573,-0.014660766,-0.0052687125
21,0.063376681,-0.0057268618,-0.015882496,-0.0046578473
22,0.065376728,-0.0081703225,-0.015882496,-0.0064904434
23,0.067376773,-0.0075594573,-0.013439035,-0.0058795782
24,0.069375686,-0.0069485921,-0.015882496,-0.0058795782
25,0.071374727,-0.006337727,-0.016493361,-0.0077121737
26,0.073374727,-0.0075594573,-0.014049901,-0.0058795782
27,0.075375419,-0.0075594573,-0.015882496,-0.0083230389
28,0.077375419,-0.0069485921,-0.018936822,-0.0040469822
29,0.07937499,-0.0093920529,-0.017104227,-0.003436117
30,0.08137499,-0.0075594573,-0.017104227,-0.0046578473
31,0.08337499,-0.0081703225,-0.017104227,-0.0040469822
32,0.085374956,-0.0075594573,-0.016493361,-0.0052687125
33,0.087374556,-0.0087811882,-0.018325957,-0.003436117
34,0.089375289,-0.010002919,-0.014049901,-0.0040469822
35,0.091375255,-0.0081703225,-0.015271631,-0.0028252518
36,0.093375221,-0.0087811882,-0.015271631,-0.003436117
37,0.095375187,-0.0081703225,-0.010995574,-0.0028252518
38,0.097375153,-0.0081703225,-0.010995574,-0.0022143866
39,0.099375119,-0.0075594573,-0.0061086523,-0.003436117
40,0.10137512,-0.0045051314,-0.0073303832,-0.0022143866
41,0.10337522,-0.0057268618,-0.0067195175,-0.0016035213
42,0.10537525,-0.0051159966,-0.0042760568,-0.0022143866
43,0.10737528,-0.0051159966,-0.0054977871,-0.00038179077
44,0.10937509,-0.003894266,-0.0030543262,-0.00099265599
45,0.11137425,-0.0026725354,-0.0030543262,-0.00038179077
46,0.11337342,-0.003894266,-0.0036651916,-0.00038179077
47,0.11537258,-0.001450805,-0.0030543262,-0.00038179077
48,0.11737258,0.00038179077,-0.0018325958,-0.00038179077
49,0.11937255,-0.001450805,-0.0012217305,0.0020616702
50,0.12137252,-0.00022907447,0.0,-0.00099265599
51,0.12337248,-0.00083993969,-0.0012217305,0.0026725354
52,0.12537245,0.00099265599,-0.002443461,0.0020616702
53,0.12737241,0.00099265599,-0.002443461,0.00083993969
54,0.12937325,0.00038179077,-0.00061086525,0.0032834008
55,0.13137401,0.0016035213,-0.0018325958,0.0020616702
56,0.13337401,0.00038179077,-0.0012217305,0.00083993969
57,0.13537344,0.00099265599,0.002443461,0.0020616702
58,0.13737348,-0.00022907447,0.002443461,0.0020616702
59,0.13937351,0.00099265599,0.004886922,0.0032834008
60,0.14137354,-0.00022907447,0.0067195175,0.003894266
61,0.14337358,0.0016035213,0.004886922,0.00083993969
62,0.14537361,-0.00083993969,0.0042760568,0.0045051314
63,0.14737364,-0.00083993969,0.004886922,0.0020616702
64,0.14937288,0.00038179077,0.0018325958,0.0026725354
65,0.15137201,-0.001450805,0.0030543262,0.001450805
66,0.15337114,-0.0020616702,0.0012217305,-0.00038179077
67,0.15537028,-0.0020616702,-0.0012217305,0.00083993969
68,0.15737028,-0.001450805,-0.0012217305,-0.0016035213
69,0.15937028,-0.0020616702,-0.0067195175,-0.00099265599
70,0.16137028,-0.0020616702,-0.0079412479,-0.00099265599
71,0.16337058,-0.0032834008,-0.01038471,0.00022907447
72,0.16537054,-0.0032834008,-0.015882496,-0.00099265599
73,0.16737051,0.00099265599,-0.016493361,-0.0016035213
74,0.16937134,-0.001450805,-0.018325957,-0.0016035213
75,0.17137267,-0.00022907447,-0.020158553,-0.0040469822
76,0.17337351,-0.0020616702,-0.021991149,-0.003436117
77,0.17537434,-0.001450805,-0.023823744,-0.0046578473
78,0.1773743,-0.0051159966,-0.025656341,-0.0040469822
79,0.1793743,-0.0032834008,-0.028099801,-0.0028252518
80,0.18137434,-0.0020616702,-0.026267206,-0.0058795782
81,0.18337437,-0.0057268618,-0.029932396,-0.00099265599
82,0.1853744,-0.0045051314,-0.028099801,-0.0040469822
83,0.18737444,-0.0051159966,-0.030543262,-0.0040469822
84,0.1893736,-0.0057268618,-0.029932396,-0.0046578473
85,0.19137277,-0.0069485921,-0.028099801,-0.003436117
86,0.19337194,-0.0075594573,-0.025656341,-0.0052687125
87,0.19537107,-0.0081703225,-0.027488936,-0.0058795782
88,0.19737017,-0.0075594573,-0.028710667,-0.0052687125
89,0.19937013,-0.0051159966,-0.023823744,-0.0058795782
90,0.2013701,-0.0081703225,-0.020158553,-0.003436117
91,0.20337007,-0.006337727,-0.019547688,-0.0052687125
92,0.20537003,-0.006337727,-0.018325957,-0.0046578473
93,0.20737,-0.0081703225,-0.014049901,-0.0064904434
94,0.20937076,-0.010002919,-0.015271631,-0.0040469822
95,0.21137163,-0.0069485921,-0.01038471,-0.0058795782
96,0.21337253,-0.0069485921,-0.0091629783,-0.0077121737
97,0.21537343,-0.0087811882,-0.0097738439,-0.0064904434
98,0.21737346,-0.0087811882,-0.0036651916,-0.0052687125
99,0.2193735,-0.0081703225,-0.004886922,-0.0083230389
100,0.22137353,-0.0093920529,-0.002443461,-0.0064904434
101,0.2233742,-0.011224649,-0.00061086525,-0.0064904434
102,0.22537423,-0.0087811882,0.0012217305,-0.0040469822
103,0.22737426,-0.010613783,0.0012217305,-0.0046578473
104,0.22937339,-0.010613783,0.0,-0.0052687125
105,0.23137289,-0.012446379,0.00061086525,-0.0040469822
106,0.23337289,-0.011835515,0.002443461,-0.0046578473
107,0.23537289,-0.011224649,0.0018325958,-0.0064904434
108,0.23737289,-0.011224649,0.00061086525,-0.0046578473
109,0.23937289,-0.01366811,-0.0030543262,-0.0046578473
110,0.24137286,-0.014278975,-0.002443461,-0.0040469822
111,0.24337306,-0.013057245,-0.0018325958,-0.003436117
112,0.24537303,-0.01488984,-0.0036651916,-0.003436117
113,0.24737299,-0.016111571,-0.0036651916,-0.0022143866
114,0.24937383,-0.016722437,-0.0085521135,-0.00099265599
115,0.25137466,-0.017333301,-0.0067195175,-0.0016035213
116,0.25337549,-0.018555032,-0.0073303832,-0.00099265599
117,0.25537632,-0.018555032,-0.010995574,0.001450805
118,0.25737719,-0.016722437,-0.012217305,0.00022907447
119,0.25937712,-0.018555032,-0.013439035,0.001450805
120,0.26137716,-0.019776762,-0.014660766,-0.00099265599
121,0.26337719,-0.019165898,-0.01282817,-0.00038179077
122,0.26537722,-0.022831088,-0.014049901,0.00083993969
123,0.26737726,-0.023441954,-0.014660766,-0.00038179077
124,0.26937639,-0.024052819,-0.019547688,0.0020616702
125,0.27137555,-0.025274549,-0.018325957,0.0026725354
126,0.27337555,-0.025274549,-0.019547688,0.0026725354
127,0.27537552,-0.023441954,-0.016493361,0.00022907447
128,0.27737549,-0.023441954,-0.021991149,0.0020616702
129,0.27937545,-0.024052819,-0.02321288,0.0026725354
130,0.28137542,-0.022220224,-0.023823744,0.0026725354
131,0.28337475,-0.024663685,-0.026267206,0.001450805
132,0.28537472,-0.02649628,-0.022602014,0.003894266
133,0.28737468,-0.025885414,-0.025045475,0.0045051314
134,0.28937555,-0.024052819,-0.021991149,0.003894266
135,0.29137558,-0.025274549,-0.021991149,0.0045051314
136,0.29337562,-0.024663685,-0.020769419,0.0026725354
137,0.29537562,-0.022831088,-0.017104227,0.0045051314
138,0.29737535,-0.024052819,-0.015271631,0.0045051314
139,0.29937518,-0.024052819,-0.010995574,0.0026725354
140,0.30137521,-0.021609358,-0.0097738439,0.0026725354
141,0.30337501,-0.020998493,-0.0079412479,0.0020616702
142,0.30537505,-0.019776762,0.0,0.00022907447
143,0.30737505,-0.020998493,0.0036651916,0.003894266
144,0.30937418,-0.018555032,0.0054977871,-0.00099265599
145,0.31137331,-0.017944166,0.0079412479,0.00083993969
146,0.31337245,-0.017333301,0.0091629783,0.0020616702
147,0.31537158,-0.01488984,0.0091629783,-0.0016035213
148,0.31737158,-0.017333301,0.01038471,0.00083993969
149,0.31937204,-0.016722437,0.0097738439,0.00022907447
150,0.32137201,-0.017333301,0.01160644,0.001450805
151,0.32337198,-0.016111571,0.012217305,0.00022907447
152,0.32537194,-0.016111571,0.010995574,0.00022907447
153,0.32737191,-0.016111571,0.012217305,0.00083993969
154,0.32937278,-0.017333301,0.010995574,-0.00038179077
155,0.33137361,-0.016722437,0.0085521135,0.0020616702
156,0.33337347,-0.017333301,0.0097738439,0.001450805
157,0.33537347,-0.017333301,0.0085521135,0.001450805
158,0.33737351,-0.015500706,0.0054977871,0.00022907447
159,0.33937354,-0.017333301,0.004886922,0.00022907447
160,0.34137357,-0.017944166,0.0067195175,0.00083993969
161,0.34337361,-0.016722437,0.004886922,0.0020616702
162,0.34537364,-0.018555032,0.0067195175,0.0020616702
163,0.34737367,-0.018555032,0.0085521135,0.00083993969
164,0.34937284,-0.018555032,0.0073303832,0.00022907447
165,0.35137197,-0.017333301,0.010995574,0.00022907447
166,0.35337107,-0.018555032,0.0091629783,-0.00038179077
167,0.3553702,-0.016111571,0.01038471,-0.00099265599
168,0.35737047,-0.017944166,0.012217305,-0.00038179077
169,0.35937064,-0.016111571,0.01282817,-0.00099265599
170,0.3613706,-0.016111571,0.015882496,-0.00038179077
171,0.36337057,-0.016111571,0.014660766,-0.00099265599
172,0.36537053,-0.017333301,0.018325957,0.00083993969
173,0.36737053,-0.015500706,0.018936822,0.00022907447
174,0.3693711,-0.01488984,0.020158553,-0.00038179077
175,0.371372,-0.01488984,0.020769419,0.00022907447
176,0.3733729,-0.01488984,0.019547688,0.00083993969
177,0.3753738,-0.014278975,0.020158553,0.00083993969
178,0.37737383,-0.01488984,0.019547688,0.00083993969
179,0.37937387,-0.014278975,0.019547688,0.0032834008
180,0.3813739,-0.014278975,0.018936822,0.001450805
181,0.38337393,-0.016722437,0.018936822,0.0020616702
182,0.38537393,-0.016111571,0.021380283,0.00083993969
183,0.38737393,-0.018555032,0.021380283,0.0032834008
184,0.38937306,-0.017944166,0.017104227,0.0051159966
185,0.3913722,-0.018555032,0.014660766,0.0045051314
186,0.39337143,-0.020998493,0.013439035,0.0075594573
187,0.39537056,-0.022831088,0.014049901,0.0069485921
188,0.39736966,-0.022831088,0.012217305,0.0087811882
189,0.39937093,-0.022220224,0.012217305,0.0087811882
190,0.40137056,-0.020998493,0.0091629783,0.010613783
191,0.40337053,-0.022831088,0.0091629783,0.011224649
192,0.4053705,-0.021609358,0.0085521135,0.011835515
193,0.4073709,-0.021609358,0.0085521135,0.012446379
194,0.40937173,-0.023441954,0.0091629783,0.011224649
195,0.41137256,-0.023441954,0.0079412479,0.01366811
196,0.41337343,-0.024663685,0.0079412479,0.012446379
197,0.41537443,-0.024052819,0.0085521135,0.01366811
198,0.41737446,-0.024052819,0.0091629783,0.013057245
199,0.41937449,-0.02649628,0.01160644,0.016111571
200,0.42137453,-0.025274549,0.01038471,0.01488984
201,0.42337456,-0.027107146,0.014049901,0.01488984
202,0.42537459,-0.027718011,0.015882496,0.016722437
203,0.42737462,-0.028328875,0.018936822,0.014278975
204,0.42937409,-0.028939741,0.022602014,0.017333301
205,0.43137406,-0.027107146,0.023823744,0.015500706
206,0.43337402,-0.028328875,0.02687807,0.017333301
207,0.43537399,-0.027718011,0.029321533,0.016722437
208,0.43737396,-0.028328875,0.032986723,0.018555032
209,0.43937392,-0.028939741,0.034208454,0.017944166
210,0.44137389,-0.027718011,0.037873644,0.016111571
211,0.44337385,-0.027107146,0.041538838,0.015500706
212,0.44537385,-0.029550606,0.043982297,0.018555032
213,0.44737389,-0.030161472,0.047036625,0.019165898
214,0.44937479,-0.029550606,0.051312681,0.019165898
215,0.45137569,-0.027718011,0.053145275,0.019165898
216,0.45337659,-0.027107146,0.056199603,0.016722437
217,0.45537749,-0.028939741,0.059864793,0.017944166
218,0.45737839,-0.025885414,0.06169739,0.019776762
219,0.45937712,-0.027718011,0.062308256,0.018555032
220,0.46137749,-0.02649628,0.06169739,0.017944166
221,0.46337749,-0.024663685,0.062308256,0.017944166
222,0.46537749,-0.025885414,0.064140849,0.017944166
223,0.46737705,-0.024663685,0.06536258,0.017944166
224,0.46937618,-0.024052819,0.065973446,0.018555032
225,0.47137535,-0.021609358,0.064140849,0.021609358
226,0.47337535,-0.021609358,0.062919118,0.017944166
227,0.47537522,-0.021609358,0.059864793,0.019165898
228,0.47737518,-0.018555032,0.060475659,0.018555032
229,0.47937605,-0.019776762,0.0580322,0.018555032
230,0.48137601,-0.021609358,0.058643065,0.017944166
231,0.48337598,-0.019165898,0.054977871,0.018555032
232,0.48537595,-0.020387627,0.05009095,0.018555032
233,0.48737591,-0.019776762,0.049480084,0.020998493
234,0.48937675,-0.022831088,0.047647487,0.019165898
235,0.49137674,-0.023441954,0.040317107,0.017944166
236,0.49337678,-0.022220224,0.041538838,0.018555032
237,0.49537681,-0.025274549,0.039706241,0.017944166
238,0.49737684,-0.02649628,0.034208454,0.015500706
239,0.49937688,-0.02649628,0.035430185,0.015500706
240,0.50137691,-0.025274549,0.03481932,0.015500706
241,0.50337694,-0.027107146,0.036041051,0.013057245
242,0.50537698,-0.028939741,0.037873644,0.01366811
243,0.50737698,-0.028328875,0.037262779,0.015500706
244,0.50937604,-0.025885414,0.039706241,0.011835515
245,0.51137528,-0.027107146,0.039706241,0.011835515
246,0.51337438,-0.027107146,0.040927973,0.0093920529
247,0.51537348,-0.023441954,0.042760566,0.0087811882
248,0.51737344,-0.022831088,0.044593163,0.010002919
249,0.51937341,-0.024052819,0.047647487,0.0075594573
250,0.52137337,-0.021609358,0.048258353,0.0075594573
251,0.52337337,-0.020998493,0.051312681,0.0045051314
252,0.52537341,-0.020387627,0.051923547,0.0069485921
253,0.52737344,-0.018555032,0.054977871,0.003894266
254,0.52937407,-0.015500706,0.0580322,0.003894266
255,0.53137494,-0.016722437,0.056810468,0.003894266
256,0.53337497,-0.014278975,0.058643065,0.0026725354
257,0.535375,-0.014278975,0.058643065,0.0020616702
258,0.53737504,-0.013057245,0.059253927,0.0020616702
259,0.53937417,-0.011835515,0.06169739,0.0026725354
260,0.54137417,-0.011835515,0.059864793,0.00022907447
261,0.54337417,-0.010613783,0.059253927,0.001450805
262,0.54537417,-0.010002919,0.060475659,0.00083993969
263,0.54737417,-0.0069485921,0.060475659,0.00022907447
264,0.5493733,-0.0069485921,0.058643065,0.001450805
265,0.55137244,-0.006337727,0.059253927,0.00022907447
266,0.55337154,-0.0051159966,0.058643065,0.0032834008
267,0.55537064,-0.0057268618,0.056199603,0.001450805
268,0.5573706,-0.0045051314,0.056199603,0.0026725354
269,0.55936967,-0.0051159966,0.051923547,0.0020616702
270,0.56136963,-0.0045051314,0.05375614,0.0026725354
271,0.5633696,-0.006337727,0.050701816,0.0026725354
272,0.56536957,-0.006337727,0.051312681,0.0026725354
273,0.56736917,-0.006337727,0.048258353,0.0032834008
274,0.56937007,-0.0069485921,0.044593163,0.0057268618
275,0.57137083,-0.010613783,0.042760566,0.0057268618
276,0.57337173,-0.011835515,0.041538838,0.0057268618
277,0.57537263,-0.010613783,0.03848451,0.006337727
278,0.57737267,-0.013057245,0.033597589,0.0075594573
279,0.5793727,-0.014278975,0.028099801,0.013057245
280,0.58137273,-0.011835515,0.026267206,0.010002919
281,0.58337276,-0.016722437,0.023823744,0.012446379
282,0.58537276,-0.015500706,0.020769419,0.012446379
283,0.58737273,-0.017333301,0.017715093,0.011835515
284,0.5893721,-0.017944166,0.017715093,0.01488984
285,0.5913712,-0.016111571,0.015271631,0.014278975
286,0.5933703,-0.016722437,0.013439035,0.014278975
287,0.5953694,-0.016722437,0.014660766,0.017944166
288,0.5973685,-0.016111571,0.01282817,0.016722437
289,0.59936846,-0.016722437,0.014660766,0.016722437
290,0.60136846,-0.016111571,0.012217305,0.015500706
291,0.6033685,-0.017333301,0.01282817,0.016722437
292,0.60536853,-0.015500706,0.01160644,0.017333301
293,0.60736856,-0.01488984,0.010995574,0.016111571
294,0.60936946,-0.01488984,0.01282817,0.017944166
295,0.61137036,-0.01366811,0.012217305,0.01488984
296,0.61337126,-0.01488984,0.01160644,0.014278975
297,0.61537176,-0.012446379,0.012217305,0.013057245
298,0.61737179,-0.011835515,0.014660766,0.013057245
299,0.61937269,-0.011224649,0.012217305,0.01366811
300,0.62137269,-0.010002919,0.012217305,0.011835515
301,0.62337269,-0.0093920529,0.010995574,0.012446379
302,0.62537269,-0.0087811882,0.0061086523,0.010613783
303,0.62737306,-0.010613783,0.0085521135,0.013057245
304,0.62937219,-0.010613783,0.0091629783,0.01366811
305,0.63137286,-0.0093920529,0.0073303832,0.0093920529
306,0.63337282,-0.012446379,0.0067195175,0.011835515
307,0.63537279,-0.01488984,0.0061086523,0.010002919
308,0.63737276,-0.012446379,0.0054977871,0.011835515
309,0.63937196,-0.01366811,0.002443461,0.011224649
310,0.64137192,-0.016111571,0.0042760568,0.011835515
311,0.64337189,-0.017944166,0.0054977871,0.0093920529
312,0.64537186,-0.019165898,0.0012217305,0.010613783
313,0.64737186,-0.018555032,0.0018325958,0.010002919
314,0.64937276,-0.017944166,0.0012217305,0.0093920529
315,0.65137366,-0.019776762,0.00061086525,0.0081703225
316,0.65337456,-0.019776762,0.0018325958,0.0093920529
317,0.65537546,-0.018555032,0.0030543262,0.010613783
318,0.65737636,-0.019165898,0.0036651916,0.0093920529
319,0.65937639,-0.018555032,0.002443461,0.0087811882
320,0.66137642,-0.016722437,0.0042760568,0.0093920529
321,0.66337642,-0.016722437,0.0067195175,0.0087811882
322,0.66537639,-0.016111571,0.0054977871,0.0087811882
323,0.66737635,-0.014278975,0.0067195175,0.0075594573
324,0.66937545,-0.01488984,0.0085521135,0.0075594573
325,0.67137455,-0.013057245,0.01160644,0.010002919
326,0.67337452,-0.012446379,0.0097738439,0.010002919
327,0.67537489,-0.011835515,0.0091629783,0.0087811882
328,0.67737485,-0.011224649,0.0091629783,0.0069485921
329,0.67937485,-0.010613783,0.0061086523,0.0087811882
330,0.68137488,-0.010002919,0.0061086523,0.006337727
331,0.68337492,-0.0093920529,0.0042760568,0.0075594573
332,0.68537495,-0.010002919,-0.00061086525,0.006337727
333,0.68737498,-0.010002919,-0.0036651916,0.0069485921
334,0.68937632,-0.0087811882,-0.0073303832,0.0057268618
335,0.69137565,-0.010613783,-0.01038471,0.0075594573
336,0.69337568,-0.010002919,-0.01160644,0.006337727
337,0.69537572,-0.011224649,-0.019547688,0.0069485921
338,0.69737572,-0.012446379,-0.021991149,0.0075594573
339,0.69937612,-0.011224649,-0.023823744,0.0051159966
340,0.70137612,-0.014278975,-0.030543262,0.0051159966
341,0.70337612,-0.012446379,-0.029932396,0.0057268618
342,0.70537612,-0.012446379,-0.032986723,0.006337727
343,0.70737612,-0.016722437,-0.036651913,0.0069485921
344,0.70937522,-0.016111571,-0.03848451,0.0051159966
345,0.71137432,-0.016722437,-0.039095376,0.003894266
346,0.71337342,-0.018555032,-0.03481932,0.0051159966
347,0.71537252,-0.017333301,-0.036041051,0.003894266
348,0.71737158,-0.019776762,-0.03481932,0.0051159966
349,0.71937155,-0.020387627,-0.031154128,0.0045051314
350,0.72137151,-0.020387627,-0.028099801,0.0026725354
351,0.72337148,-0.019165898,-0.025045475,0.001450805
352,0.72537148,-0.019776762,-0.020769419,0.0032834008
353,0.72737148,-0.017333301,-0.018936822,0.0032834008
354,0.72937238,-0.016722437,-0.014660766,0.0032834008
355,0.73137341,-0.01488984,-0.01160644,0.00022907447
356,0.73337344,-0.014278975,-0.0061086523,0.00022907447
357,0.73537348,-0.013057245,-0.0054977871,0.001450805
358,0.73737351,-0.010613783,0.0,0.00022907447
359,0.73937354,-0.0081703225,0.0012217305,-0.0028252518
360,0.74137354,-0.0093920529,0.0018325958,-0.0040469822
361,0.74337351,-0.0081703225,-0.00061086525,-0.0028252518
362,0.74537348,-0.0057268618,0.0042760568,-0.0028252518
363,0.74737344,-0.006337727,0.002443461,-0.0040469822
364,0.74937208,-0.003894266,-0.0012217305,-0.0058795782
365,0.75137118,-0.0026725354,-0.0030543262,-0.0052687125
366,0.75337028,-0.0020616702,-0.0030543262,-0.003436117
367,0.75536938,-0.0026725354,-0.0061086523,-0.0071013086
368,0.75736938,-0.0020616702,-0.012217305,-0.0040469822
369,0.75936974,-0.0032834008,-0.014049901,-0.0040469822
370,0.76136974,-0.0026725354,-0.020769419,-0.0028252518
371,0.76336974,-0.0020616702,-0.022602014,-0.0040469822
372,0.76536974,-0.0026725354,-0.028099801,-0.003436117
373,0.76736974,-0.0051159966,-0.031154128,-0.0052687125
374,0.76937061,-0.0069485921,-0.035430185,-0.0022143866
375,0.77137147,-0.0069485921,-0.03848451,-0.0046578473
376,0.77337234,-0.0081703225,-0.041538838,-0.0040469822
377,0.77537324,-0.010613783,-0.045204028,-0.0022143866
378,0.77737417,-0.010613783,-0.044593163,-0.0040469822
379,0.77937397,-0.010613783,-0.047036625,-0.0028252518
380,0.78137401,-0.010002919,-0.047647487,-0.0028252518
381,0.78337404,-0.011835515,-0.045814894,-0.0016035213
382,0.78537407,-0.015500706,-0.04642576,-0.003436117
383,0.7873741,-0.014278975,-0.045204028,-0.0016035213
384,0.78937324,-0.012446379,-0.047036625,-0.00099265599
385,0.7913722,-0.013057245,-0.040927973,-0.00099265599
386,0.7933713,-0.01366811,-0.041538838,-0.00038179077
387,0.7953704,-0.010613783,-0.039706241,-0.00099265599
388,0.7973695,-0.0087811882,-0.037873644,-0.0016035213
389,0.7993703,-0.0081703225,-0.036041051,-0.00099265599
390,0.80137027,-0.0075594573,-0.031154128,0.00022907447
391,0.80337027,-0.003894266,-0.029321533,-0.0022143866
392,0.80537027,-0.0051159966,-0.02687807,-0.0028252518
393,0.8073703,-0.00083993969,-0.024434609,-0.0022143866
394,0.80937124,-0.0020616702,-0.020769419,-0.0016035213
395,0.81137214,-0.00022907447,-0.021991149,-0.0022143866
396,0.81337304,0.0022143866,-0.017104227,-0.00099265599
397,0.81537394,0.0016035213,-0.015882496,-0.0022143866
398,0.81737397,0.0022143866,-0.014049901,-0.0028252518
399,0.819374,0.00099265599,-0.012217305,-0.00038179077
400,0.8213736,0.0028252518,-0.01160644,-0.00038179077
401,0.82753338,0.003436117,-0.010995574,-0.00038179077
402,0.82953338,0.003436117,-0.01038471,-0.0028252518
403,0.83153338,0.00038179077,-0.0091629783,0.0026725354
404,0.83353252,0.00099265599,-0.0097738439,0.00022907447
405,0.83553252,-0.001450805,-0.012217305,0.00022907447
406,0.83753252,-0.003894266,-0.014049901,-0.00099265599
407,0.83953248,-0.0051159966,-0.01282817,0.0020616702
408,0.84153245,-0.0069485921,-0.014660766,0.001450805
409,0.84353265,-0.0093920529,-0.016493361,0.00083993969
410,0.84553262,-0.012446379,-0.017715093,0.003894266
411,0.84753258,-0.013057245,-0.020769419,0.0045051314
412,0.84953255,-0.016722437,-0.021380283,0.0032834008
413,0.85153251,-0.016111571,-0.022602014,0.0026725354
414,0.85353335,-0.020998493,-0.023823744,0.003894266
415,0.85553421,-0.023441954,-0.02321288,0.0051159966
416,0.85753511,-0.024052819,-0.02321288,0.0026725354
417,0.85953601,-0.024663685,-0.024434609,0.003894266
418,0.86153691,-0.02649628,-0.021991149,0.003894266
419,0.86353601,-0.02649628,-0.021991149,0.003894266
420,0.86553604,-0.025274549,-0.018936822,0.0020616702
421,0.86753608,-0.024663685,-0.017104227,0.001450805
422,0.86953611,-0.024663685,-0.017104227,0.0032834008
423,0.87153611,-0.025885414,-0.01282817,-0.00038179077
424,0.87353518,-0.022831088,-0.010995574,0.00022907447
425,0.87553428,-0.025274549,-0.0097738439,0.00083993969
426,0.87753424,-0.020998493,-0.0079412479,-0.0016035213
427,0.87953421,-0.017333301,-0.002443461,0.00022907447
428,0.88153418,-0.017944166,-0.00061086525,-0.003436117
429,0.88353414,-0.017944166,0.0,-0.00099265599
430,0.88553454,-0.014278975,0.00061086525,-0.0028252518
431,0.88753454,-0.01488984,0.0012217305,-0.0040469822
432,0.88953457,-0.013057245,0.0030543262,-0.0040469822
433,0.89153461,-0.011835515,0.0061086523,-0.0016035213
434,0.89353557,-0.012446379,0.0091629783,-0.0016035213
435,0.89553561,-0.010002919,0.013439035,-0.00038179077
436,0.89753564,-0.010613783,0.017104227,-0.003436117
437,0.89953567,-0.0087811882,0.017715093,-0.00099265599
438,0.9015357,-0.0081703225,0.015271631,-0.0016035213
439,0.9035357,-0.0087811882,0.015882496,-0.003436117
440,0.9055357,-0.0081703225,0.01282817,-0.003436117
441,0.9075357,-0.0081703225,0.0091629783,0.00022907447
442,0.9095357,-0.0069485921,0.0085521135,-0.00038179077
443,0.9115357,-0.0069485921,0.0079412479,0.0020616702
444,0.91353484,-0.0087811882,0.0073303832,0.003894266
445,0.91553397,-0.0081703225,0.0036651916,0.0057268618
446,0.91753307,-0.0093920529,0.0018325958,0.0075594573
447,0.91953217,-0.0075594573,-0.0018325958,0.0081703225
448,0.92153214,-0.010002919,-0.00061086525,0.010002919
449,0.92353204,-0.011224649,-0.0036651916,0.011835515
450,0.925532,-0.0087811882,-0.0054977871,0.014278975
451,0.92753197,-0.010613783,-0.004886922,0.015500706
452,0.92953194,-0.011224649,-0.0036651916,0.016722437
453,0.9315319,-0.010002919,-0.0030543262,0.016722437
454,0.93353197,-0.010002919,-0.0042760568,0.019165898
455,0.93553287,-0.0093920529,-0.002443461,0.019776762
456,0.9375329,-0.010002919,-0.0018325958,0.021609358
457,0.93953293,-0.0075594573,-0.002443461,0.018555032
458,0.94153297,-0.0069485921,-0.00061086525,0.021609358
459,0.94353273,-0.0057268618,0.0042760568,0.022220224
460,0.94553276,-0.0057268618,0.0042760568,0.025274549
461,0.9475328,-0.0057268618,0.0054977871,0.022220224
462,0.9495328,-0.003894266,0.0073303832,0.020998493
463,0.95153276,-0.001450805,0.0054977871,0.022831088
464,0.9535318,-0.0020616702,0.010995574,0.022220224
465,0.9555309,-0.0020616702,0.01038471,0.020998493
466,0.95753,-0.00022907447,0.01160644,0.021609358
467,0.9595291,0.00038179077,0.014049901,0.019776762
468,0.96152906,0.0016035213,0.012217305,0.017333301
469,0.96352906,0.0022143866,0.010995574,0.016111571
470,0.96552906,0.0052687125,0.01160644,0.017944166
471,0.9675291,0.003436117,0.01282817,0.014278975
472,0.96952913,0.0040469822,0.01282817,0.016722437
473,0.97152916,0.0052687125,0.012217305,0.01366811
474,0.97352966,0.0064904434,0.0097738439,0.014278975
475,0.97553056,0.0064904434,0.0079412479,0.014278975
476,0.97753146,0.0071013086,0.0085521135,0.011835515
477,0.97953236,0.010155635,0.0061086523,0.011224649
478,0.9815324,0.0083230389,0.004886922,0.013057245
479,0.98353256,0.0095447693,0.0036651916,0.010613783
480,0.98553256,0.0095447693,0.0012217305,0.0075594573
481,0.98753256,0.0095447693,0.0012217305,0.0093920529
482,0.98953256,0.0107665,-0.0012217305,0.0081703225
483,0.99153256,0.0083230389,-0.004886922,0.0075594573
484,0.99353253,0.0083230389,-0.004886922,0.006337727
485,0.99553163,0.0077121737,-0.0067195175,0.0087811882
486,0.99753073,0.0095447693,-0.0085521135,0.0069485921
487,0.99952983,0.0089339046,-0.0085521135,0.0069485921
488,1.0015289,0.0107665,-0.0097738439,0.0045051314
489,1.0035288,0.0095447693,-0.010995574,0.0032834008
490,1.0055288,0.0107665,-0.01160644,0.0032834008
491,1.0075287,0.0107665,-0.015882496,0.0026725354
492,1.0095287,0.01198823,-0.017104227,0.0051159966
493,1.0115289,0.01198823,-0.016493361,0.003894266
494,1.0135296,0.01198823,-0.021380283,0.0045051314
495,1.0155305,0.013209961,-0.021991149,0.001450805
496,1.0175314,0.013209961,-0.017715093,0.001450805
497,1.0195323,0.0107665,-0.021991149,0.003894266
498,1.0215323,0.01198823,-0.022602014,0.0045051314
499,1.0235323,0.01198823,-0.02321288,0.0057268618
500,1.0255324,0.0083230389,-0.021991149,0.006337727
501,1.0275324,0.0064904434,-0.020158553,0.006337727
502,1.0295323,0.0052687125,-0.021380283,0.0081703225
503,1.0315323,0.0058795782,-0.017715093,0.010002919
504,1.0335318,0.0052687125,-0.015271631,0.011224649
505,1.0355318,0.0028252518,-0.013439035,0.012446379
506,1.0375317,0.00038179077,-0.01160644,0.014278975
507,1.0395317,-0.0020616702,-0.0097738439,0.016111571
508,1.0415338,-0.0026725354,-0.0067195175,0.016722437
509,1.0435338,-0.0045051314,-0.0061086523,0.019165898
510,1.0455339,-0.0045051314,-0.002443461,0.019165898
511,1.0475339,-0.0057268618,0.0,0.020387627
512,1.0495339,-0.0069485921,0.00061086525,0.020998493
513,1.051534,-0.0057268618,0.0061086523,0.023441954
514,1.0535349,-0.0081703225,0.0054977871,0.020998493
515,1.0555358,-0.0057268618,0.0085521135,0.021609358
516,1.0575367,-0.0057268618,0.0097738439,0.020998493
517,1.0595376,-0.0051159966,0.015271631,0.023441954
518,1.0615385,-0.0069485921,0.016493361,0.022831088
519,1.0635388,-0.003894266,0.017715093,0.021609358
520,1.0655388,-0.003894266,0.021991149,0.020998493
521,1.0675388,-0.0020616702,0.023823744,0.020387627
522,1.0695388,-0.0045051314,0.025656341,0.022831088
523,1.0715386,-0.001450805,0.029321533,0.020998493
524,1.0735379,-0.001450805,0.028710667,0.020998493
525,1.075537,-0.001450805,0.028099801,0.017333301
526,1.077537,-0.00083993969,0.029321533,0.020387627
527,1.0795369,0.0016035213,0.029932396,0.017944166
528,1.0815369,0.0028252518,0.029321533,0.017333301
529,1.0835369,0.0022143866,0.031154128,0.016111571
530,1.0855368,0.003436117,0.02687807,0.016111571
531,1.0875368,0.0040469822,0.02321288,0.016111571
532,1.0895368,0.0046578473,0.026267206,0.016722437
533,1.0915368,0.0046578473,0.021991149,0.016111571
534,1.0935377,0.0058795782,0.018325957,0.016111571
535,1.0955378,0.0058795782,0.014660766,0.016111571
536,1.0975374,0.003436117,0.0091629783,0.013057245
537,1.0995375,0.0022143866,0.0079412479,0.014278975
538,1.1015353,0.003436117,0.0036651916,0.01366811
539,1.1035356,0.0028252518,-0.0018325958,0.01488984
540,1.1055356,0.0022143866,-0.0061086523,0.013057245
541,1.1075355,-0.00083993969,-0.0079412479,0.01488984
542,1.1095355,0.0016035213,-0.014660766,0.01366811
543,1.1115355,-0.001450805,-0.017104227,0.017944166
544,1.1135345,-0.00083993969,-0.020158553,0.014278975
545,1.1155336,-0.0020616702,-0.025045475,0.016111571
546,1.1175327,-0.0020616702,-0.025045475,0.017333301
547,1.1195318,0.00038179077,-0.025045475,0.018555032
548,1.1215316,-0.00083993969,-0.029321533,0.018555032
549,1.1235316,-0.0026725354,-0.029932396,0.021609358
550,1.1255316,-0.0020616702,-0.031154128,0.018555032
551,1.1275317,0.00099265599,-0.029321533,0.020998493
552,1.1295317,-0.001450805,-0.027488936,0.020998493
553,1.1315317,-0.00083993969,-0.028099801,0.022220224
554,1.1335325,-0.00022907447,-0.025656341,0.019776762
555,1.1355334,0.00038179077,-0.023823744,0.020998493
556,1.1375334,0.0028252518,-0.020769419,0.022220224
557,1.1395334,0.0028252518,-0.020769419,0.020387627
558,1.1415334,0.0040469822,-0.018325957,0.019165898
559,1.1435334,0.003436117,-0.015882496,0.020387627
560,1.1455334,0.0052687125,-0.015271631,0.021609358
561,1.1475334,0.0052687125,-0.012217305,0.020998493
562,1.1495334,0.0064904434,-0.0073303832,0.020998493
563,1.1515332,0.0040469822,-0.0067195175,0.021609358
564,1.1535323,0.0077121737,-0.004886922,0.020387627
565,1.1555314,0.010155635,-0.0061086523,0.018555032
566,1.1575309,0.010155635,-0.0042760568,0.018555032
567,1.15953,0.0107665,-0.004886922,0.019165898
568,1.16153,0.0089339046,-0.0054977871,0.019165898
569,1.1635297,0.0095447693,-0.0061086523,0.017944166
570,1.1655297,0.0083230389,-0.0042760568,0.017944166
571,1.1675297,0.0089339046,-0.0091629783,0.01488984
572,1.1695297,0.0077121737,-0.012217305,0.016111571
573,1.1715298,0.0052687125,-0.01160644,0.017333301
574,1.1735303,0.0058795782,-0.01282817,0.017333301
575,1.1755312,0.003436117,-0.018936822,0.014278975
576,1.1775321,0.0016035213,-0.019547688,0.015500706
577,1.179533,-0.0020616702,-0.023823744,0.01488984
578,1.1815339,-0.0032834008,-0.02687807,0.01488984
579,1.1835339,-0.0020616702,-0.031154128,0.01488984
580,1.1855338,-0.0026725354,-0.031154128,0.01366811
581,1.1875338,-0.003894266,-0.032375857,0.015500706
582,1.1895338,-0.0057268618,-0.035430185,0.013057245
583,1.1915337,-0.0045051314,-0.036041051,0.011224649
584,1.193533,-0.0057268618,-0.03481932,0.011224649
585,1.1955321,-0.006337727,-0.036651913,0.010613783
586,1.1975312,-0.0057268618,-0.036651913,0.011835515
587,1.1995303,-0.0081703225,-0.033597589,0.011224649
588,1.2015294,-0.0081703225,-0.034208454,0.010613783
589,1.2035294,-0.0075594573,-0.033597589,0.0087811882
590,1.2055294,-0.006337727,-0.033597589,0.010002919
591,1.2075294,-0.0087811882,-0.032986723,0.010002919
592,1.2095294,-0.0081703225,-0.030543262,0.0093920529
593,1.2115296,-0.0093920529,-0.028710667,0.010002919
594,1.2135305,-0.0087811882,-0.025045475,0.0093920529
595,1.2155313,-0.0075594573,-0.020769419,0.0093920529
596,1.2175322,-0.0087811882,-0.02321288,0.0093920529
597,1.2195331,-0.010002919,-0.019547688,0.010002919
598,1.2215332,-0.010002919,-0.020158553,0.0087811882
599,1.2235332,-0.0093920529,-0.020158553,0.010613783
600,1.2255332,-0.0093920529,-0.020769419,0.0093920529
601,1.2275333,-0.01366811,-0.019547688,0.011835515
602,1.2295333,-0.013057245,-0.019547688,0.01488984
603,1.2315333,-0.014278975,-0.019547688,0.013057245
604,1.2335327,-0.013057245,-0.020158553,0.010613783
605,1.2355333,-0.015500706,-0.020769419,0.015500706
606,1.2375332,-0.016111571,-0.021380283,0.01488984
607,1.2395332,-0.018555032,-0.020769419,0.01488984
608,1.2415326,-0.015500706,-0.021380283,0.01488984
609,1.2435326,-0.020387627,-0.021380283,0.017333301
610,1.2455326,-0.019776762,-0.018936822,0.014278975
611,1.2475326,-0.019776762,-0.022602014,0.016111571
612,1.2495318,-0.020387627,-0.020158553,0.017944166
613,1.2515318,-0.022220224,-0.018936822,0.016111571
614,1.2535323,-0.021609358,-0.019547688,0.016111571
615,1.2555332,-0.021609358,-0.018936822,0.016722437
616,1.2575341,-0.021609358,-0.017104227,0.019165898
617,1.259535,-0.020998493,-0.017715093,0.016111571
618,1.2615359,-0.022831088,-0.015882496,0.019165898
619,1.2635359,-0.020998493,-0.01282817,0.017333301
620,1.2655359,-0.020998493,-0.01282817,0.017944166
621,1.2675359,-0.020998493,-0.010995574,0.019776762
622,1.2695359,-0.021609358,-0.0085521135,0.018555032
623,1.2715359,-0.020998493,-0.0067195175,0.019776762
624,1.273535,-0.020998493,-0.0030543262,0.021609358
625,1.2755342,-0.021609358,0.0,0.019165898
626,1.2775341,-0.020387627,0.0012217305,0.020998493
627,1.2795341,-0.020387627,0.0042760568,0.017333301
628,1.2815341,-0.020387627,0.0073303832,0.017944166
629,1.283534,-0.020387627,0.0097738439,0.017944166
630,1.285534,-0.017944166,0.01282817,0.017333301
631,1.2875339,-0.020387627,0.014660766,0.017333301
632,1.2895339,-0.018555032,0.017104227,0.015500706
633,1.2915339,-0.019165898,0.018325957,0.01488984
634,1.2935348,-0.016722437,0.019547688,0.015500706
635,1.2955342,-0.017944166,0.020158553,0.016111571
636,1.2975342,-0.016722437,0.022602014,0.01488984
637,1.2995343,-0.017333301,0.023823744,0.01366811
638,1.3015343,-0.015500706,0.021991149,0.013057245
639,1.3035343,-0.015500706,0.021380283,0.01488984
640,1.3055344,-0.017333301,0.021380283,0.013057245
641,1.3075344,-0.015500706,0.020769419,0.012446379
642,1.3095353,-0.01366811,0.021991149,0.013057245
643,1.3115352,-0.015500706,0.020158553,0.010002919
644,1.3135347,-0.01488984,0.018325957,0.011224649
645,1.3155338,-0.01488984,0.014660766,0.014278975
646,1.3175329,-0.015500706,0.015882496,0.012446379
647,1.319532,-0.01488984,0.01282817,0.012446379
648,1.321532,-0.014278975,0.0091629783,0.013057245
649,1.323532,-0.016722437,0.013439035,0.012446379
650,1.325532,-0.016722437,0.0097738439,0.01366811
651,1.3275321,-0.014278975,0.004886922,0.012446379
652,1.3295321,-0.014278975,0.0061086523,0.014278975
653,1.3315321,-0.014278975,0.002443461,0.014278975
654,1.3335327,-0.016111571,0.0042760568,0.013057245
655,1.3355336,-0.01488984,-0.002443461,0.014278975
656,1.3375336,-0.015500706,-0.0018325958,0.014278975
657,1.3395336,-0.01366811,-0.0054977871,0.017944166
658,1.3415336,-0.01366811,-0.0042760568,0.015500706
659,1.3435336,-0.012446379,-0.004886922,0.014278975
660,1.3455336,-0.014278975,-0.0061086523,0.015500706
661,1.3475336,-0.012446379,-0.0079412479,0.016111571
662,1.3495336,-0.013057245,-0.004886922,0.013057245
663,1.3515336,-0.011224649,-0.0067195175,0.016722437
664,1.3535327,-0.011835515,-0.0091629783,0.015500706
665,1.3555318,-0.012446379,-0.0061086523,0.016111571
666,1.3575309,-0.012446379,-0.0079412479,0.016111571
667,1.35953,-0.011835515,-0.0079412479,0.018555032
668,1.36153,-0.010613783,-0.0079412479,0.016111571
669,1.36353,-0.010613783,-0.0036651916,0.018555032
670,1.3655299,-0.0087811882,-0.0036651916,0.017333301
671,1.3675299,-0.011224649,-0.0012217305,0.017333301
672,1.3695299,-0.0081703225,0.00061086525,0.016111571
673,1.3715299,-0.0081703225,0.0030543262,0.016722437
674,1.3735311,-0.0069485921,0.0036651916,0.016111571
675,1.375532,-0.0081703225,0.0061086523,0.014278975
676,1.3775329,-0.0075594573,0.0067195175,0.015500706
677,1.3795338,-0.0057268618,0.0097738439,0.01488984
678,1.3815338,-0.0051159966,0.0097738439,0.016111571
679,1.383534,-0.006337727,0.010995574,0.014278975
680,1.385534,-0.0045051314,0.012217305,0.016722437
681,1.387534,-0.0075594573,0.01282817,0.015500706
682,1.389534,-0.006337727,0.013439035,0.017333301
683,1.391534,-0.0093920529,0.015882496,0.018555032
684,1.3935334,-0.0069485921,0.015271631,0.017333301
685,1.3955325,-0.0069485921,0.013439035,0.016722437
686,1.3975316,-0.010002919,0.015882496,0.017333301
687,1.3995307,-0.0075594573,0.014660766,0.017333301
688,1.4015299,-0.0093920529,0.014660766,0.019165898
689,1.4035299,-0.0087811882,0.01282817,0.017944166
690,1.4055299,-0.0093920529,0.014049901,0.017944166
691,1.40753,-0.010613783,0.0097738439,0.017944166
692,1.40953,-0.0093920529,0.01160644,0.019165898
693,1.41153,-0.0093920529,0.0085521135,0.021609358
694,1.4135309,-0.010613783,0.0091629783,0.021609358
695,1.4155318,-0.0093920529,0.004886922,0.022220224
696,1.4175327,-0.010002919,0.0018325958,0.020998493
697,1.4195336,-0.0093920529,0.002443461,0.022220224
698,1.4215336,-0.0087811882,0.002443461,0.021609358
699,1.4235336,-0.0087811882,-0.0018325958,0.020387627
700,1.4255336,-0.0081703225,-0.00061086525,0.021609358
701,1.4275336,-0.0075594573,-0.002443461,0.022220224
702,1.4295336,-0.0057268618,-0.0036651916,0.022220224
703,1.4315336,-0.0087811882,-0.0042760568,0.022831088
704,1.4335324,-0.0069485921,-0.004886922,0.022831088
705,1.4355324,-0.0081703225,-0.0030543262,0.022220224
706,1.437532,-0.0057268618,-0.0030543262,0.020387627
707,1.439532,-0.0075594573,-0.002443461,0.021609358
708,1.4415319,-0.0075594573,-0.0012217305,0.020387627
709,1.4435317,-0.006337727,-0.0018325958,0.018555032
710,1.4455317,-0.006337727,-0.00061086525,0.018555032
711,1.4475317,-0.0057268618,0.0012217305,0.017944166
712,1.4495317,-0.0081703225,0.0012217305,0.017944166
713,1.4515317,-0.0045051314,0.00061086525,0.016111571
714,1.4535326,-0.0051159966,0.0036651916,0.01488984
715,1.4555335,-0.003894266,0.0042760568,0.01488984
716,1.4575344,-0.0057268618,0.0036651916,0.015500706
717,1.4595353,-0.0045051314,0.0030543262,0.016111571
718,1.4615362,-0.0045051314,0.0054977871,0.013057245
719,1.463537,-0.0069485921,0.0030543262,0.011224649
720,1.465537,-0.0045051314,0.0061086523,0.012446379
721,1.467537,-0.003894266,0.0054977871,0.012446379
722,1.4695369,-0.0051159966,0.0054977871,0.011224649
723,1.4715369,-0.0051159966,0.0054977871,0.011835515
724,1.473536,-0.0045051314,0.0054977871,0.010002919
725,1.4755351,-0.003894266,0.0085521135,0.010002919
726,1.4775342,-0.0026725354,0.0067195175,0.010613783
727,1.4795342,-0.0032834008,0.0042760568,0.011224649
728,1.4815342,-0.0020616702,0.0042760568,0.010002919
729,1.4835342,-0.00083993969,0.0036651916,0.010613783
730,1.4855343,-0.0020616702,0.0030543262,0.010002919
731,1.4875343,-0.003894266,0.00061086525,0.011224649
732,1.4895343,-0.0026725354,-0.00061086525,0.012446379
733,1.4915344,-0.0045051314,-0.002443461,0.011835515
734,1.4935348,-0.0032834008,-0.0067195175,0.011835515
735,1.4955348,-0.003894266,-0.0061086523,0.012446379
736,1.4975352,-0.0057268618,-0.01038471,0.01366811
737,1.4995352,-0.0069485921,-0.01038471,0.013057245
738,1.5015352,-0.006337727,-0.01160644,0.014278975
739,1.5035352,-0.006337727,-0.01038471,0.014278975
740,1.5055352,-0.006337727,-0.015271631,0.016111571
741,1.5075352,-0.0069485921,-0.014660766,0.017333301
742,1.5095349,-0.0069485921,-0.01282817,0.016722437
743,1.5115348,-0.0087811882,-0.014660766,0.017333301
744,1.5135339,-0.0075594573,-0.01282817,0.019165898
745,1.515533,-0.010002919,-0.01282817,0.017944166
746,1.5175321,-0.011224649,-0.01038471,0.019776762
747,1.5195312,-0.0093920529,-0.010995574,0.019165898
748,1.5215312,-0.0087811882,-0.0079412479,0.018555032
749,1.52353,-0.011835515,-0.0073303832,0.019165898
750,1.52553,-0.010613783,-0.0067195175,0.021609358
751,1.52753,-0.010002919,-0.0054977871,0.020387627
752,1.52953,-0.0087811882,-0.002443461,0.017944166
753,1.5315301,-0.0087811882,0.00061086525,0.019165898
754,1.5335315,-0.0075594573,0.0061086523,0.022831088
755,1.5355321,-0.0057268618,0.0061086523,0.020387627
756,1.537533,-0.0081703225,0.0079412479,0.020998493
757,1.5395331,-0.003894266,0.01038471,0.021609358
758,1.5415331,-0.0032834008,0.016493361,0.021609358
759,1.5435331,-0.0026725354,0.017104227,0.021609358
760,1.5455331,-0.0026725354,0.018936822,0.021609358
761,1.547533,-0.00083993969,0.024434609,0.019165898
762,1.549533,0.00038179077,0.023823744,0.021609358
763,1.5515329,0.00038179077,0.02687807,0.019165898
764,1.5535324,-0.00022907447,0.02687807,0.021609358
765,1.5555315,-0.00083993969,0.031154128,0.021609358
766,1.5575306,0.0022143866,0.031154128,0.017944166
767,1.5595298,0.00038179077,0.032986723,0.017333301
768,1.5615298,0.003436117,0.032986723,0.018555032
769,1.5635298,0.003436117,0.033597589,0.017944166
770,1.5655299,0.0016035213,0.032375857,0.018555032
771,1.5675299,0.003436117,0.032986723,0.017944166
772,1.5695303,0.003436117,0.032375857,0.018555032
773,1.5715303,0.0028252518,0.031764992,0.017944166
774,1.5735312,0.0040469822,0.031764992,0.016722437
775,1.5755321,0.00099265599,0.030543262,0.017333301
776,1.5775329,0.003436117,0.025045475,0.016722437
777,1.5795338,0.0028252518,0.025045475,0.017333301
778,1.5815338,0.0028252518,0.019547688,0.016111571
779,1.5835337,0.0028252518,0.017104227,0.018555032
780,1.5855337,0.003436117,0.015882496,0.017944166
781,1.5875337,0.00099265599,0.014049901,0.019165898
782,1.5895339,0.00099265599,0.014049901,0.015500706
783,1.5915339,0.003436117,0.014049901,0.017944166
784,1.5935325,0.00099265599,0.0091629783,0.019776762
785,1.5955319,0.0040469822,0.0085521135,0.020387627
786,1.597531,0.0058795782,0.0091629783,0.020998493
787,1.5995301,0.0058795782,0.0097738439,0.019776762
788,1.6015292,0.0052687125,0.010995574,0.021609358
789,1.6035291,0.0040469822,0.0097738439,0.019776762
790,1.6055291,0.0077121737,0.0091629783,0.020387627
791,1.60753,0.0083230389,0.01038471,0.018555032
792,1.60953,0.0083230389,0.010995574,0.020387627
793,1.6115301,0.0089339046,0.0085521135,0.021609358
794,1.6135306,0.0107665,0.0091629783,0.020387627
795,1.6155315,0.011377365,0.0061086523,0.021609358
796,1.6175324,0.013209961,0.0061086523,0.024052819
797,1.6195333,0.012599096,0.0061086523,0.023441954
798,1.6215333,0.013820826,0.0091629783,0.022831088
799,1.6235332,0.016264288,0.0085521135,0.021609358
800,1.6255332,0.016875152,0.010995574,0.021609358
801,1.6275332,0.017486017,0.015882496,0.023441954
802,1.6295331,0.019929478,0.018936822,0.020998493
803,1.6315331,0.019929478,0.019547688,0.021609358
804,1.6335322,0.019929478,0.021991149,0.022220224
805,1.6355322,0.021151209,0.025045475,0.020387627
806,1.6375322,0.021762075,0.029321533,0.023441954
807,1.6395322,0.021151209,0.031154128,0.020998493
808,1.6415323,0.022983804,0.03481932,0.019776762
809,1.6435323,0.019929478,0.037873644,0.022831088
810,1.6455323,0.021762075,0.039095376,0.022220224
811,1.6475324,0.021762075,0.041538838,0.019165898
812,1.6495322,0.021762075,0.041538838,0.020998493
813,1.6515322,0.022372939,0.039095376,0.020387627
814,1.6535331,0.020540344,0.041538838,0.019776762
815,1.6555343,0.022983804,0.0421497,0.021609358
816,1.6575352,0.020540344,0.0421497,0.020387627
817,1.659536,0.021762075,0.043371432,0.020998493
818,1.6615369,0.021151209,0.0421497,0.019776762
819,1.6635369,0.021762075,0.037262779,0.019776762
820,1.6655369,0.021151209,0.036651913,0.018555032
821,1.667536,0.021762075,0.032986723,0.016722437
822,1.669536,0.019929478,0.029321533,0.017333301
823,1.671536,0.019929478,0.025656341,0.016722437
824,1.6735355,0.019929478,0.024434609,0.019165898
825,1.6755347,0.020540344,0.020769419,0.017944166
826,1.6775346,0.019318614,0.014660766,0.017333301
827,1.6795346,0.018707749,0.015882496,0.017333301
828,1.6815346,0.018707749,0.012217305,0.015500706
829,1.6835346,0.017486017,0.0097738439,0.017333301
830,1.6855346,0.018707749,0.0073303832,0.017333301
831,1.6875346,0.015653422,0.0067195175,0.017944166
832,1.6895347,0.015653422,0.004886922,0.014278975
833,1.6915338,0.017486017,0.002443461,0.01488984
834,1.6935347,0.016264288,0.0012217305,0.016111571
835,1.6955347,0.016264288,0.0012217305,0.01488984
836,1.6975348,0.015042556,-0.00061086525,0.01488984
837,1.6995348,0.015653422,-0.0042760568,0.01488984
838,1.7015347,0.013209961,-0.0012217305,0.01488984
839,1.7035351,0.01198823,-0.0030543262,0.015500706
840,1.7055351,0.01198823,-0.0018325958,0.019776762
841,1.707535,0.013209961,-0.002443461,0.015500706
842,1.709535,0.012599096,-0.0030543262,0.016722437
843,1.711535,0.010155635,-0.0030543262,0.016111571
844,1.7135341,0.011377365,-0.0018325958,0.016111571
845,1.7155329,0.010155635,-0.0018325958,0.017333301
846,1.717532,0.0089339046,-0.0030543262,0.016111571
847,1.7195312,0.0089339046,-0.0018325958,0.018555032
848,1.7215312,0.0089339046,-0.0030543262,0.016722437
849,1.7235313,0.0071013086,-0.002443461,0.016722437
850,1.7255313,0.010155635,-0.0030543262,0.017944166
851,1.7275313,0.0083230389,-0.0036651916,0.020998493
852,1.7295314,0.0083230389,-0.00061086525,0.021609358
853,1.7315314,0.0077121737,0.002443461,0.022220224
854,1.7335323,0.0077121737,0.0012217305,0.023441954
855,1.735533,0.011377365,0.0018325958,0.023441954
856,1.737533,0.0089339046,0.0030543262,0.025274549
857,1.739533,0.0107665,0.004886922,0.028328875
858,1.741533,0.010155635,0.0054977871,0.029550606
859,1.7435329,0.012599096,0.0091629783,0.030161472
860,1.7455329,0.012599096,0.01038471,0.028328875
861,1.7475328,0.013209961,0.010995574,0.029550606
862,1.7495328,0.012599096,0.01038471,0.030772336
863,1.7515337,0.0107665,0.016493361,0.032604933
864,1.7535329,0.013209961,0.020769419,0.031383201
865,1.755532,0.012599096,0.021991149,0.031994067
866,1.7575311,0.01198823,0.021991149,0.033826664
867,1.7595302,0.011377365,0.030543262,0.030161472
868,1.7615302,0.01198823,0.029321533,0.033215798
869,1.7635302,0.013209961,0.03481932,0.030161472
870,1.7655302,0.011377365,0.03481932,0.03443753
871,1.7675303,0.012599096,0.035430185,0.032604933
872,1.7695303,0.014431692,0.036041051,0.030161472
873,1.7715303,0.012599096,0.037262779,0.033215798
874,1.7735313,0.012599096,0.036651913,0.035048392
875,1.7755322,0.010155635,0.032375857,0.033215798
876,1.777533,0.011377365,0.029321533,0.033215798
877,1.7795339,0.011377365,0.028099801,0.033826664
878,1.7815338,0.0107665,0.023823744,0.036880989
879,1.7835338,0.0095447693,0.020158553,0.03810272
880,1.7855338,0.0083230389,0.018325957,0.038713586
881,1.7875337,0.0064904434,0.010995574,0.038713586
882,1.7895337,0.0052687125,0.002443461,0.040546179
883,1.7915337,0.003436117,0.0,0.038713586
884,1.7935328,0.0022143866,-0.0054977871,0.039324451
885,1.795532,0.0028252518,-0.01282817,0.039324451
886,1.7975312,0.0022143866,-0.015271631,0.04176791
887,1.7995303,0.00099265599,-0.017104227,0.04176791
888,1.8015295,0.0022143866,-0.020769419,0.039324451
889,1.8035297,0.0016035213,-0.02321288,0.039935317
890,1.8055297,0.00099265599,-0.02687807,0.040546179
891,1.8075297,0.0016035213,-0.027488936,0.039324451
892,1.8095298,0.0022143866,-0.028710667,0.039935317
893,1.8115298,0.003436117,-0.029932396,0.042378776
894,1.8135307,0.003436117,-0.034208454,0.042378776
895,1.8155316,0.0046578473,-0.034208454,0.041157044
896,1.8175324,0.0052687125,-0.03481932,0.043600507
897,1.8195333,0.0083230389,-0.037262779,0.042378776
898,1.8215333,0.0083230389,-0.036651913,0.042989641
899,1.8235333,0.010155635,-0.039706241,0.044211373
900,1.8255332,0.012599096,-0.040317107,0.04604397
901,1.8275332,0.013820826,-0.044593163,0.043600507
902,1.8295332,0.013209961,-0.043982297,0.044211373
903,1.8315331,0.016875152,-0.045204028,0.042989641
904,1.8335322,0.016264288,-0.048258353,0.046654832
905,1.8355313,0.019318614,-0.047647487,0.047265697
906,1.8375313,0.017486017,-0.048258353,0.047265697
907,1.8395313,0.018707749,-0.05009095,0.044211373
908,1.8415313,0.018707749,-0.050701816,0.044211373
909,1.8435313,0.017486017,-0.049480084,0.044211373
910,1.8455314,0.015653422,-0.048258353,0.044211373
911,1.8475314,0.014431692,-0.048258353,0.042378776
912,1.8495314,0.015653422,-0.048869219,0.04176791
913,1.8515315,0.01198823,-0.044593163,0.039935317
914,1.8535322,0.010155635,-0.0421497,0.039935317
915,1.855533,0.0083230389,-0.042760566,0.040546179
916,1.8575338,0.0064904434,-0.037262779,0.03810272
917,1.8595347,0.003436117,-0.034208454,0.041157044
918,1.8615355,0.0016035213,-0.032375857,0.039324451
919,1.8635354,-0.0020616702,-0.028099801,0.039324451
920,1.8655354,-0.0020616702,-0.024434609,0.038713586
921,1.8675354,-0.0045051314,-0.019547688,0.038713586
922,1.8695353,-0.0075594573,-0.017104227,0.038713586
923,1.8715353,-0.0057268618,-0.014660766,0.035659257
924,1.8735343,-0.006337727,-0.014049901,0.036270123
925,1.8755335,-0.010002919,-0.01282817,0.033215798
926,1.8775335,-0.011835515,-0.010995574,0.033215798
927,1.8795336,-0.011835515,-0.0097738439,0.035048392
928,1.8815336,-0.013057245,-0.0091629783,0.031994067
929,1.8835333,-0.014278975,-0.0085521135,0.030772336
930,1.8855333,-0.016722437,-0.0061086523,0.031994067
931,1.8875333,-0.017333301,-0.0036651916,0.030161472
932,1.8895329,-0.020387627,-0.0036651916,0.030161472
933,1.8915329,-0.022831088,-0.0030543262,0.030772336
934,1.8935335,-0.024052819,-0.0012217305,0.031994067
935,1.8955343,-0.027107146,0.002443461,0.031994067
936,1.8975343,-0.028939741,0.0,0.030161472
937,1.8995343,-0.033215798,0.0030543262,0.033215798
938,1.9015343,-0.031994067,0.0061086523,0.032604933
939,1.9035343,-0.035048392,0.0085521135,0.033826664
940,1.9055342,-0.036270123,0.01038471,0.033215798
941,1.9075342,-0.03810272,0.01038471,0.03810272
942,1.9095342,-0.038713586,0.014660766,0.033215798
943,1.9115341,-0.038713586,0.017715093,0.03443753
944,1.9135334,-0.040546179,0.018936822,0.035048392
945,1.9155325,-0.039935317,0.020158553,0.036270123
946,1.9175316,-0.042989641,0.028099801,0.037491854
947,1.9195308,-0.042378776,0.027488936,0.036880989
948,1.9215308,-0.044211373,0.031764992,0.039935317
949,1.9235309,-0.043600507,0.036651913,0.041157044
950,1.9255309,-0.047876563,0.03848451,0.040546179
951,1.9275309,-0.049098294,0.041538838,0.039935317
952,1.929531,-0.047876563,0.045204028,0.042989641
953,1.931531,-0.050930891,0.052534413,0.044822238
954,1.9335319,-0.050320026,0.054367006,0.042989641
955,1.9355327,-0.053985216,0.06169739,0.044822238
956,1.9375327,-0.053985216,0.066584311,0.047265697
957,1.9395326,-0.054596081,0.067806043,0.045433104
958,1.9415326,-0.054596081,0.074525557,0.047876563
959,1.9435327,-0.057039544,0.078801617,0.048487429
960,1.9455327,-0.057650406,0.08124508,0.048487429
961,1.9475326,-0.057650406,0.084910266,0.047876563
962,1.9495331,-0.058872137,0.086742863,0.04970916
963,1.9515331,-0.059483003,0.089186326,0.050930891
964,1.9535326,-0.060093869,0.090408057,0.049098294
965,1.9555317,-0.062537327,0.09285152,0.04970916
966,1.9575309,-0.060704734,0.090408057,0.050320026
967,1.9595301,-0.063759059,0.090408057,0.04970916
968,1.9615301,-0.06498079,0.08857546,0.048487429
969,1.9635301,-0.066813387,0.08857546,0.050320026
970,1.9655302,-0.066202521,0.085521132,0.050930891
971,1.9675302,-0.06498079,0.0842994,0.04970916
972,1.9695302,-0.068035118,0.08124508,0.050320026
973,1.9715301,-0.06498079,0.07696902,0.050320026
974,1.9735312,-0.068645984,0.074525557,0.050930891
975,1.975532,-0.068645984,0.073914692,0.051541757
976,1.9775329,-0.068645984,0.06963864,0.04970916
977,1.9795337,-0.071700305,0.066584311,0.048487429
978,1.9815337,-0.068645984,0.065973446,0.051541757
979,1.9835337,-0.06925685,0.062919118,0.04970916
980,1.9855336,-0.069867715,0.058643065,0.050320026
981,1.9875336,-0.071089447,0.056810468,0.049098294
982,1.9895336,-0.072922036,0.053145275,0.048487429
983,1.9915335,-0.071089447,0.054367006,0.04970916
984,1.9935326,-0.07231117,0.048869219,0.049098294
985,1.9955318,-0.068035118,0.04642576,0.047265697
986,1.9975309,-0.071089447,0.045204028,0.044211373
987,1.9995301,-0.071700305,0.044593163,0.045433104
988,2.0015293,-0.06925685,0.042760566,0.04176791
989,2.0035297,-0.06925685,0.0421497,0.041157044
990,2.0055293,-0.068645984,0.037873644,0.040546179
991,2.0075294,-0.066813387,0.036651913,0.03810272
992,2.0095294,-0.06498079,0.036651913,0.038713586
993,2.0115294,-0.067424253,0.035430185,0.036880989
994,2.0135303,-0.065591656,0.032375857,0.033826664
995,2.0155311,-0.068035118,0.030543262,0.033215798
996,2.0175319,-0.066813387,0.025045475,0.028939741
997,2.0195328,-0.064369924,0.024434609,0.027718011
998,2.0215322,-0.066202521,0.02321288,0.027718011
999,2.0235322,-0.066202521,0.018325957,0.024663685
1000,2.0255322,-0.065591656,0.017104227,0.024663685
1001,2.0275322,-0.065591656,0.016493361,0.022831088
1002,2.0295322,-0.064369924,0.014660766,0.019165898
1003,2.0315323,-0.063759059,0.01282817,0.016722437
1004,2.0335313,-0.065591656,0.01160644,0.016111571
1005,2.0355313,-0.064369924,0.010995574,0.016111571
1006,2.0375313,-0.062537327,0.010995574,0.01488984
1007,2.0395314,-0.062537327,0.0073303832,0.011835515
1008,2.0415314,-0.062537327,0.0091629783,0.011224649
1009,2.0435314,-0.060093869,0.0067195175,0.010613783
1010,2.0455314,-0.0613156,0.0085521135,0.011835515
1011,2.0475314,-0.060704734,0.0085521135,0.012446379
1012,2.0495314,-0.059483003,0.0091629783,0.010613783
1013,2.0515314,-0.057039544,0.0085521135,0.0093920529
1014,2.0535323,-0.055817813,0.01038471,0.011224649
1015,2.0555332,-0.054596081,0.0097738439,0.011224649
1016,2.057534,-0.05337435,0.0067195175,0.011835515
1017,2.0595348,-0.052763484,0.01038471,0.010002919
1018,2.0615357,-0.04970916,0.01160644,0.010002919
1019,2.0635352,-0.047265697,0.0097738439,0.010613783
1020,2.0655355,-0.047876563,0.014049901,0.011835515
1021,2.0675355,-0.042378776,0.017715093,0.01366811
1022,2.0695354,-0.042378776,0.020769419,0.012446379
1023,2.0715354,-0.041157044,0.02687807,0.016722437
1024,2.0735345,-0.035048392,0.028099801,0.015500706
1025,2.0755337,-0.035659257,0.032375857,0.016111571
1026,2.0775337,-0.03443753,0.036651913,0.017944166
1027,2.0795337,-0.031383201,0.045204028,0.018555032
1028,2.0815343,-0.030772336,0.047036625,0.017944166
1029,2.0835343,-0.025885414,0.047647487,0.019165898
1030,2.0855343,-0.027107146,0.052534413,0.016722437
1031,2.0875344,-0.024663685,0.054367006,0.017944166
1032,2.0895344,-0.024052819,0.053145275,0.017944166
1033,2.0915343,-0.024052819,0.051312681,0.018555032
1034,2.0935355,-0.020387627,0.052534413,0.018555032
1035,2.0955354,-0.019776762,0.051923547,0.022831088
1036,2.0975354,-0.019165898,0.053145275,0.021609358
1037,2.0995354,-0.020387627,0.052534413,0.024052819
1038,2.1015353,-0.017944166,0.049480084,0.023441954
1039,2.1035353,-0.019776762,0.048258353,0.021609358
1040,2.105535,-0.016722437,0.048869219,0.023441954
1041,2.107535,-0.016722437,0.048258353,0.024052819
1042,2.109535,-0.015500706,0.04642576,0.023441954
1043,2.1115351,-0.014278975,0.042760566,0.025885414
1044,2.1135342,-0.01366811,0.0421497,0.024663685
1045,2.1155334,-0.014278975,0.043371432,0.025274549
1046,2.1175326,-0.014278975,0.041538838,0.02649628
1047,2.1195317,-0.011835515,0.03848451,0.027718011
1048,2.1215318,-0.013057245,0.037873644,0.02649628
1049,2.1235321,-0.0087811882,0.03481932,0.027107146
1050,2.1255321,-0.0081703225,0.031154128,0.028939741
1051,2.1275321,-0.0075594573,0.029932396,0.031383201
1052,2.1295321,-0.0069485921,0.029321533,0.030772336
1053,2.1315321,-0.0051159966,0.02687807,0.031994067
1054,2.1335329,-0.0051159966,0.022602014,0.03443753
1055,2.1355338,-0.0026725354,0.020769419,0.037491854
1056,2.1375338,0.00099265599,0.018936822,0.035659257
1057,2.1395337,0.0022143866,0.016493361,0.03810272
1058,2.1415337,0.0046578473,0.016493361,0.041157044
1059,2.1435337,0.003436117,0.014049901,0.044211373
1060,2.1455336,0.0058795782,0.012217305,0.044211373
1061,2.1475336,0.0058795782,0.013439035,0.046654832
1062,2.1495336,0.0071013086,0.013439035,0.04604397
1063,2.1515336,0.0058795782,0.015271631,0.047876563
1064,2.1535324,0.0089339046,0.013439035,0.049098294
1065,2.1555316,0.0089339046,0.016493361,0.051541757
1066,2.1575308,0.01198823,0.014660766,0.05337435
1067,2.1595299,0.010155635,0.016493361,0.054596081
1068,2.16153,0.010155635,0.015271631,0.05337435
1069,2.16353,0.011377365,0.013439035,0.05337435
1070,2.1655304,0.0083230389,0.018325957,0.055817813
1071,2.1675304,0.0095447693,0.01160644,0.057039544
1072,2.1695303,0.01198823,0.010995574,0.057039544
1073,2.1715303,0.0107665,0.0097738439,0.058261272
1074,2.1735311,0.011377365,0.0085521135,0.058261272
1075,2.175532,0.010155635,0.0061086523,0.058872137
1076,2.1775328,0.010155635,0.0030543262,0.0613156
1077,2.1795336,0.01198823,-0.00061086525,0.063148193
1078,2.1815336,0.013209961,-0.0036651916,0.061926465
1079,2.1835336,0.011377365,-0.0054977871,0.06498079
1080,2.1855336,0.01198823,-0.01282817,0.064369924
1081,2.1875337,0.01198823,-0.013439035,0.063148193
1082,2.1895337,0.01198823,-0.015271631,0.066202521
1083,2.1915337,0.013209961,-0.017104227,0.068035118
1084,2.1935329,0.011377365,-0.020158553,0.068035118
1085,2.1955321,0.012599096,-0.021991149,0.066202521
1086,2.1975312,0.012599096,-0.021991149,0.067424253
1087,2.1995304,0.011377365,-0.023823744,0.068645984
1088,2.2015295,0.013820826,-0.021380283,0.068645984
1089,2.2035295,0.015653422,-0.021380283,0.068035118
1090,2.2055295,0.014431692,-0.019547688,0.067424253
1091,2.2075304,0.015653422,-0.015271631,0.06925685
1092,2.2095304,0.015042556,-0.014049901,0.066813387
1093,2.2115304,0.015042556,-0.0097738439,0.066202521
1094,2.2135314,0.016875152,-0.0054977871,0.069867715
1095,2.2155322,0.016875152,0.0018325958,0.063148193
1096,2.217533,0.017486017,0.0067195175,0.065591656
1097,2.2195339,0.016875152,0.01282817,0.064369924
1098,2.221533,0.017486017,0.017715093,0.063759059
1099,2.2235329,0.019318614,0.024434609,0.058872137
1100,2.2255329,0.019318614,0.033597589,0.060704734
1101,2.2275329,0.018096883,0.039706241,0.058261272
1102,2.2295328,0.018707749,0.040317107,0.058261272
1103,2.2315329,0.019318614,0.047036625,0.054596081
1104,2.233532,0.019929478,0.049480084,0.054596081
1105,2.2355325,0.018096883,0.051923547,0.05337435
1106,2.2375331,0.019318614,0.054367006,0.052152619
1107,2.2395331,0.020540344,0.054977871,0.048487429
1108,2.2415331,0.019929478,0.05375614,0.049098294
1109,2.2435331,0.017486017,0.051312681,0.04604397
1110,2.2455331,0.016264288,0.053145275,0.045433104
1111,2.2475331,0.018096883,0.049480084,0.044822238
1112,2.249533,0.016264288,0.045204028,0.044211373
1113,2.251533,0.015653422,0.044593163,0.043600507
1114,2.2535338,0.015042556,0.036041051,0.04176791
1115,2.2555347,0.015042556,0.031764992,0.041157044
1116,2.2575355,0.015042556,0.02687807,0.040546179
1117,2.2595363,0.013209961,0.020769419,0.039324451
1118,2.2615372,0.01198823,0.014660766,0.036270123
1119,2.2635372,0.010155635,0.0097738439,0.036880989
1120,2.2655373,0.0071013086,0.0054977871,0.03810272
1121,2.2675365,0.0028252518,0.0018325958,0.033826664
1122,2.2695365,0.0040469822,-0.002443461,0.035659257
1123,2.2715365,-0.00083993969,-0.01038471,0.035659257
1124,2.2735355,-0.00083993969,-0.013439035,0.036270123
1125,2.2755347,-0.0026725354,-0.016493361,0.036880989
1126,2.2775347,-0.006337727,-0.021991149,0.03810272
1127,2.2795347,-0.010613783,-0.031154128,0.035659257
1128,2.2815356,-0.013057245,-0.032375857,0.038713586
1129,2.2835356,-0.014278975,-0.034208454,0.036880989
1130,2.2855354,-0.017944166,-0.041538838,0.037491854
1131,2.2875354,-0.020387627,-0.043982297,0.037491854
1132,2.2895354,-0.024663685,-0.05009095,0.039324451
1133,2.2915354,-0.028939741,-0.051923547,0.040546179
1134,2.2935362,-0.030161472,-0.056810468,0.039324451
1135,2.2955358,-0.03443753,-0.06536258,0.042989641
1136,2.2975352,-0.036880989,-0.067806043,0.042989641
1137,2.2995351,-0.039935317,-0.06963864,0.043600507
1138,2.3015351,-0.044211373,-0.075747289,0.044822238
1139,2.3035351,-0.045433104,-0.079412483,0.046654832
1140,2.3055351,-0.049098294,-0.080023348,0.047876563
1141,2.3075351,-0.051541757,-0.083077677,0.051541757
1142,2.3095351,-0.053985216,-0.087964594,0.050320026
1143,2.3115351,-0.053985216,-0.087353729,0.051541757
1144,2.3135343,-0.057039544,-0.091629788,0.052763484
1145,2.3155334,-0.057039544,-0.093462385,0.052763484
1146,2.3175326,-0.059483003,-0.094684117,0.053985216
1147,2.3195318,-0.060704734,-0.095294975,0.057039544
1148,2.3215318,-0.064369924,-0.096516706,0.058872137
1149,2.3235318,-0.064369924,-0.098349303,0.058872137
1150,2.3255318,-0.068035118,-0.096516706,0.060093869
1151,2.3275314,-0.06925685,-0.10079277,0.060704734
1152,2.3295313,-0.069867715,-0.098349303,0.06498079
1153,2.3315313,-0.073532902,-0.099571034,0.062537327
1154,2.3335322,-0.075976364,-0.099571034,0.068035118
1155,2.335533,-0.07658723,-0.1001819,0.067424253
1156,2.3375333,-0.081474155,-0.10079277,0.07231117
1157,2.3395333,-0.084528476,-0.098349303,0.073532902
1158,2.3415333,-0.083306745,-0.098960169,0.072922036
1159,2.3435334,-0.085750207,-0.1001819,0.077808961
1160,2.3455336,-0.090026267,-0.1001819,0.077198096
1161,2.3475336,-0.092469729,-0.1020145,0.075976364
1162,2.3495336,-0.096134916,-0.10751228,0.080252424
1163,2.3515337,-0.099189244,-0.11301007,0.082085021
1164,2.3535328,-0.10224357,-0.11484267,0.082695879
1165,2.355532,-0.10529789,-0.12156218,0.086361073
1166,2.3575311,-0.10896309,-0.1282817,0.088804536
1167,2.3595303,-0.11201742,-0.13072516,0.089415401
1168,2.3615303,-0.11873693,-0.1423316,0.092469729
1169,2.36353,-0.12362386,-0.14660765,0.094913185
1170,2.36553,-0.12606731,-0.15088372,0.10102184
1171,2.36753,-0.13034338,-0.15271631,0.09552405
1172,2.36953,-0.13767375,-0.16310102,0.096134916
1173,2.37153,-0.14317155,-0.16310102,0.10041098
1174,2.3735309,-0.14439327,-0.1685988,0.099189244
1175,2.3755317,-0.15538885,-0.17104226,0.10285444
1176,2.3775325,-0.15844317,-0.16798794,0.11018482
1177,2.3795334,-0.17004961,-0.1685988,0.11140655
1178,2.3815333,-0.17188221,-0.17043141,0.11385001
1179,2.3835333,-0.17982346,-0.17043141,0.11385001
1180,2.3855333,-0.18837558,-0.17043141,0.11262828
1181,2.3875337,-0.1914299,-0.17287487,0.11140655
1182,2.3895337,-0.20059288,-0.17470746,0.10957395
1183,2.3915337,-0.2054798,-0.17531833,0.11018482
1184,2.3935329,-0.21036673,-0.17776179,0.10896309
1185,2.395532,-0.21586451,-0.18081611,0.10651962
1186,2.3975309,-0.22319488,-0.18570304,0.10713049
1187,2.39953,-0.22624922,-0.1863139,0.10835222
1188,2.4015292,-0.23663393,-0.19120082,0.10835222
1189,2.4035291,-0.24518603,-0.19364429,0.10468704
1190,2.4055291,-0.24824037,-0.19425514,0.10529789
1191,2.407529,-0.25923595,-0.19730948,0.10651962
1192,2.409529,-0.26778805,-0.19914207,0.10407617
1193,2.411529,-0.27206412,-0.20097467,0.10407617
1194,2.4135298,-0.28244883,-0.20586158,0.10041098
1195,2.4155306,-0.28977919,-0.20830505,0.09980011
1196,2.4175315,-0.29466611,-0.20830505,0.10102184
1197,2.4195323,-0.30260736,-0.21013765,0.099189244
1198,2.4215323,-0.31299207,-0.21013765,0.097356647
1199,2.4235323,-0.31726813,-0.20830505,0.096134916
1200,2.4255323,-0.32459852,-0.21135938,0.093080595
1201,2.4275323,-0.33498323,-0.21135938,0.093691453
1202,2.4295323,-0.33681583,-0.21319197,0.093691453
1203,2.4315323,-0.34414622,-0.21746802,0.090026267
1204,2.4335314,-0.34964401,-0.22418754,0.089415401
1205,2.4355322,-0.35453093,-0.22479841,0.088804536
1206,2.4375322,-0.36063957,-0.22907446,0.085139342
1207,2.4395322,-0.36858082,-0.23273966,0.086361073
1208,2.4415323,-0.37285689,-0.2321288,0.08391761
1209,2.4435325,-0.38140899,-0.23090707,0.086361073
1210,2.4455325,-0.38935024,-0.22907446,0.083306745
1211,2.4475325,-0.39423716,-0.22724187,0.083306745
1212,2.4495325,-0.40278926,-0.22174409,0.082085021
1213,2.4515325,-0.41378483,-0.21197024,0.08391761
1214,2.4535334,-0.4180609,-0.20952678,0.080252424
1215,2.4555342,-0.42905647,-0.19425514,0.079030693
1216,2.457535,-0.44127378,-0.17837265,0.079030693
1217,2.4595359,-0.4461607,-0.17043141,0.077808961
1218,2.4615367,-0.45776713,-0.15149458,0.070478581
1219,2.4635367,-0.46998444,-0.13194689,0.068645984
1220,2.4655367,-0.47731483,-0.12034045,0.063148193
1221,2.4675364,-0.48953214,-0.098960169,0.0613156
1222,2.4695364,-0.49808425,-0.07696902,0.053985216
1223,2.4715365,-0.50419289,-0.068416908,0.050930891
1224,2.4735356,-0.51457763,-0.042760566,0.046654832
1225,2.4755348,-0.51946455,-0.032986723,0.046654832
1226,2.4775348,-0.52618402,-0.010995574,0.041157044
1227,2.4795348,-0.53290355,0.0091629783,0.035048392
1228,2.4815349,-0.53901219,0.032375857,0.032604933
1229,2.4835348,-0.54206657,0.043982297,0.031383201
1230,2.4855348,-0.54695344,0.064140849,0.030161472
1231,2.4875348,-0.54878604,0.08124508,0.02649628
1232,2.4895348,-0.55000782,0.089186326,0.025274549
1233,2.4915348,-0.55184036,0.10567969,0.023441954
1234,2.4935357,-0.55184036,0.12095132,0.022220224
1235,2.4955349,-0.55061865,0.12400565,0.022831088
1236,2.4975349,-0.55061865,0.13439035,0.018555032
1237,2.4995349,-0.54634261,0.14049901,0.018555032
1238,2.5015348,-0.54634261,0.1441642,0.016722437
1239,2.5035346,-0.5426774,0.15271631,0.01488984
1240,2.5055346,-0.54145569,0.1563815,0.011224649
1241,2.5075342,-0.53901219,0.16126843,0.0093920529
1242,2.5095341,-0.53656876,0.1685988,0.0081703225
1243,2.5115341,-0.53412533,0.17043141,0.0069485921
1244,2.5135333,-0.53534704,0.17837265,0.003894266
1245,2.5155325,-0.53779048,0.18081611,0.00022907447
1246,2.5175316,-0.53779048,0.1881465,0.00022907447
1247,2.5195308,-0.5408448,0.18753563,-0.0016035213
1248,2.5215308,-0.54328829,0.19120082,-0.0040469822
1249,2.5235309,-0.54634261,0.19058995,-0.0064904434
1250,2.5255309,-0.55061865,0.19364429,-0.0089339046
1251,2.5275312,-0.56100339,0.19181168,-0.0095447693
1252,2.5295312,-0.56405771,0.19058995,-0.0107665
1253,2.5315312,-0.57505327,0.19181168,-0.0095447693
1254,2.533532,-0.58604884,0.19364429,-0.0064904434
1255,2.5355329,-0.59215748,0.19181168,-0.0064904434
1256,2.5375328,-0.60620737,0.19547687,-0.0022143866
1257,2.5395328,-0.62270075,0.19608775,-0.0016035213
1258,2.5415328,-0.63613981,0.19608775,-0.0022143866
1259,2.5435328,-0.65690923,0.2003638,0.0020616702
1260,2.5455329,-0.67645693,0.20219639,0.006337727
1261,2.5475329,-0.68623072,0.20219639,0.0081703225
1262,2.5495329,-0.71249795,0.20402899,0.013057245
1263,2.551533,-0.73387825,0.21074851,0.019776762
1264,2.5535321,-0.74670643,0.21319197,0.020998493
1265,2.5555313,-0.77419531,0.22113322,0.027718011
1266,2.5575304,-0.80107343,0.23029619,0.035659257
1267,2.5595296,-0.81634504,0.23396139,0.03810272
1268,2.5615287,-0.84200138,0.25473082,0.044822238
1269,2.5635287,-0.86949033,0.28038713,0.049098294
1270,2.5655287,-0.88354021,0.29688051,0.05337435
1271,2.5675291,-0.90919656,0.32681289,0.058872137
1272,2.5695291,-0.93912894,0.36346483,0.066202521
1273,2.5715291,-0.95745492,0.38056904,0.068645984
1274,2.5735295,-0.99349594,0.41477749,0.074754633
1275,2.5755304,-1.029537,0.44104472,0.079641558
1276,2.5775312,-1.0472521,0.44898596,0.08086329
1277,2.579532,-1.0887909,0.47464231,0.083306745
1278,2.581532,-1.1217777,0.49846604,0.087582804
1279,2.583532,-1.1413254,0.51190507,0.090026267
1280,2.5855319,-1.1767555,0.53695053,0.094913185
1281,2.5875319,-1.2097423,0.5540548,0.097356647
1282,2.5895319,-1.2231812,0.56016344,0.10102184
1283,2.5915319,-1.256168,0.57482421,0.10163271
1284,2.5935311,-1.2897656,0.58826321,0.10590876
1285,2.5955303,-1.3019829,0.59559363,0.10590876
1286,2.5975294,-1.3349696,0.61453044,0.10590876
1287,2.5995286,-1.3642912,0.6414085,0.10529789
1288,2.6015277,-1.3826171,0.65545839,0.10774136
1289,2.6035277,-1.424156,0.68111473,0.097356647
1290,2.6055277,-1.4638622,0.698219,0.090637133
1291,2.6075277,-1.4834099,0.71349061,0.090026267
1292,2.6095276,-1.5176183,0.75930548,0.091858864
1293,2.6115276,-1.5487725,0.81061816,0.094302319
1294,2.6135285,-1.5646549,0.84177232,0.096745782
1295,2.6155293,-1.5933657,0.90469146,0.10957395
1296,2.6175301,-1.6135242,0.97249746,0.11995866
1297,2.619531,-1.6202437,1.0048733,0.12484559
1298,2.6215318,-1.6300175,1.0714576,0.14317155
1299,2.6235319,-1.6397914,1.1282681,0.15416712
1300,2.6255319,-1.6391805,1.1545353,0.16333009
1301,2.6275319,-1.6355153,1.1985176,0.17738
1302,2.629532,-1.6336827,1.237613,0.1877647
1303,2.631532,-1.6281849,1.2565498,0.19265163
1304,2.6335316,-1.614746,1.2907583,0.20059288
1305,2.6355316,-1.5933657,1.3286319,0.20425807
1306,2.6375317,-1.5835918,1.3384057,0.20486893
1307,2.6395317,-1.555492,1.3579534,0.20670153
1308,2.6415317,-1.5408312,1.3652838,0.2054798
1309,2.6435317,-1.505401,1.3683381,0.20181461
1310,2.6455317,-1.4754686,1.3707817,0.19814941
1311,2.6475317,-1.4571427,1.3658947,0.19448422
1312,2.6495317,-1.4278212,1.3573426,0.18471038
1313,2.6515316,-1.3997214,1.328021,0.17249307
1314,2.6535325,-1.3850605,1.2986995,0.16333009
1315,2.6555333,-1.3618478,1.2089024,0.145615
1316,2.6575341,-1.3361914,1.0922271,0.12056953
1317,2.659535,-1.3203089,1.0354166,0.10713049
1318,2.6615358,-1.297096,0.91141093,0.081474155
1319,2.6635361,-1.2757157,0.79045963,0.055206947
1320,2.6655361,-1.2689962,0.73181659,0.044822238
1321,2.6675361,-1.2512811,0.61025441,0.027718011
1322,2.6695361,-1.2317334,0.47525316,0.010002919
1323,2.6715362,-1.2231812,0.40317106,0.001450805
1324,2.6735353,-1.1932489,0.24556783,-0.020540344
1325,2.6755345,-1.1651491,0.091018923,-0.041920628
1326,2.6775343,-1.152321,0.01160644,-0.053527068
1327,2.6795343,-1.1291081,-0.13683382,-0.074296482
1328,2.6815339,-1.106506,-0.26633725,-0.085902922
1329,2.6835337,-1.0973431,-0.32131511,-0.092622444
1330,2.6855336,-1.0845149,-0.42088616,-0.096898496
1331,2.6875336,-1.0826823,-0.50885075,-0.099341959
1332,2.6895336,-1.0851258,-0.54916787,-0.098731093
1333,2.6915335,-1.0906235,-0.62247169,-0.089568116
1334,2.6935344,-1.1028409,-0.68233645,-0.079794273
1335,2.6955343,-1.106506,-0.70799279,-0.068798698
1336,2.6975343,-1.1254429,-0.75258601,-0.051083606
1337,2.6995343,-1.1443797,-0.78557271,-0.025427265
1338,2.7015343,-1.152321,-0.80206609,-0.014431692
1339,2.7035344,-1.1730903,-0.83138758,0.0087811882
1340,2.7055344,-1.1920272,-0.84971356,0.032604933
1341,2.7075344,-1.2036337,-0.85337877,0.045433104
1342,2.7095345,-1.2170726,-0.85276788,0.060704734
1343,2.7115345,-1.2280682,-0.83322018,0.077198096
1344,2.7135337,-1.2323443,-0.81978118,0.083306745
1345,2.7155328,-1.233566,-0.78129667,0.093691453
1346,2.717532,-1.2329551,-0.73975784,0.10041098
1347,2.7195311,-1.2305117,-0.711658,0.10407617
1348,2.7215309,-1.21524,-0.65484756,0.10774136
1349,2.7235306,-1.1993575,-0.59681535,0.11446088
1350,2.7255306,-1.1846968,-0.56443948,0.11507174
1351,2.7275306,-1.1529318,-0.50213122,0.1175152
1352,2.7295306,-1.1181124,-0.43310347,0.11507174
1353,2.7315305,-1.0942887,-0.398895,0.11323915
1354,2.7335314,-1.0393108,-0.31398472,0.10468704
1355,2.7355322,-0.97517002,-0.20708331,0.093080595
1356,2.7375324,-0.93790722,-0.14599679,0.088804536
1357,2.7395324,-0.86154908,-0.018325957,0.072922036
1358,2.7415328,-0.78213656,0.10629055,0.053985216
1359,2.743533,-0.74548465,0.16371189,0.042378776
1360,2.745533,-0.67523515,0.25900686,0.020387627
1361,2.747533,-0.6110943,0.32803464,-0.0083230389
1362,2.7495331,-0.5817728,0.35613444,-0.021762075
1363,2.7515331,-0.52801663,0.39584067,-0.05047274
1364,2.7535323,-0.50236028,0.40561453,-0.068187833
1365,2.7555314,-0.45654541,0.4184427,-0.092622444
1366,2.7575306,-0.41622829,0.42394048,-0.12133311
1367,2.7595298,-0.39484802,0.4202753,-0.13599387
1368,2.7615298,-0.36369389,0.41294491,-0.16042848
1369,2.7635297,-0.33437237,0.39522982,-0.18913916
1370,2.7655297,-0.30932689,0.37507126,-0.21723895
1371,2.7675296,-0.29710957,0.35918877,-0.22945626
1372,2.7695296,-0.28367054,0.31826079,-0.25450173
1373,2.7715302,-0.27389669,0.27672195,-0.27527115
1374,2.773531,-0.26962066,0.25228736,-0.285045
1375,2.7755318,-0.27328584,0.19792034,-0.30825788
1376,2.7775327,-0.27450758,0.17043141,-0.31864259
1377,2.7795336,-0.28733575,0.11850785,-0.33819026
1378,2.7815339,-0.30810517,0.071471237,-0.35407278
1379,2.7835338,-0.31604642,0.052534413,-0.35957056
1380,2.7855339,-0.34170276,0.004886922,-0.36995527
1381,2.7875339,-0.37652206,-0.05375614,-0.37850738
1382,2.7895339,-0.39912409,-0.091018923,-0.3815617
1383,2.791534,-0.44249552,-0.15760323,-0.38095084
1384,2.7935332,-0.48342347,-0.22296582,-0.37972912
1385,2.7955323,-0.50174946,-0.24801129,-0.37911823
1386,2.7975315,-0.52435148,-0.2761111,-0.38095084
1387,2.7995306,-0.53046012,-0.27122417,-0.38278344
1388,2.8015297,-0.53107095,-0.25717425,-0.38522691
1389,2.8035297,-0.52190799,-0.22235495,-0.39011383
1390,2.8055297,-0.50663638,-0.18325958,-0.39622247
1391,2.8075297,-0.49808425,-0.15760323,-0.39744419
1392,2.8095297,-0.47609311,-0.11484267,-0.40477458
1393,2.8115296,-0.45165849,-0.075747289,-0.41088325
1394,2.8135305,-0.44127378,-0.061086524,-0.41027236
1395,2.8155313,-0.4113414,-0.031154128,-0.41393757
1396,2.8175321,-0.38385245,-0.01160644,-0.41210496
1397,2.819533,-0.37041342,-0.0018325958,-0.41332671
1398,2.8215326,-0.34292448,0.0054977871,-0.40905064
1399,2.8235326,-0.31787899,0.01160644,-0.40660718
1400,2.8255326,-0.30443996,0.014660766,-0.4011094
1401,2.8275326,-0.28244883,0.015882496,-0.39316815
1402,2.8295327,-0.25923595,0.020158553,-0.38217255
1403,2.8315321,-0.24885122,0.020769419,-0.37239873
1404,2.8335313,-0.22747095,0.024434609,-0.36323574
1405,2.8355313,-0.20792326,0.020769419,-0.35162932
1406,2.8375313,-0.2036472,0.014660766,-0.34796411
1407,2.8395313,-0.18654297,0.0054977871,-0.34063372
1408,2.8415313,-0.17554741,-0.01038471,-0.33147076
1409,2.8435316,-0.16821702,-0.015882496,-0.32475123
1410,2.8455316,-0.15661058,-0.030543262,-0.31558827
1411,2.8475315,-0.14256068,-0.047647487,-0.30276009
1412,2.8495315,-0.13706289,-0.052534413,-0.29848403
1413,2.8515315,-0.1297325,-0.072082102,-0.28871018
1414,2.8535322,-0.11995866,-0.0842994,-0.27649289
1415,2.8555331,-0.11385001,-0.094684117,-0.27099508
1416,2.857534,-0.10590876,-0.11239921,-0.26122126
1417,2.8595349,-0.09552405,-0.12705997,-0.25022566
1418,2.8615358,-0.08819367,-0.13500121,-0.24411702
1419,2.8635358,-0.077198096,-0.14660765,-0.23617578
1420,2.8655359,-0.065591656,-0.15943582,-0.22762366
1421,2.8675359,-0.059483003,-0.16676621,-0.2270128
1422,2.8695359,-0.047876563,-0.18020524,-0.22151501
1423,2.871536,-0.033826664,-0.19364429,-0.2129629
1424,2.8735351,-0.02649628,-0.19730948,-0.20868684
1425,2.8755343,-0.0087811882,-0.21074851,-0.20502165
1426,2.8775343,0.0089339046,-0.2180789,-0.20196733
1427,2.8795343,0.017486017,-0.22724187,-0.20135646
1428,2.8815346,0.03520111,-0.23701571,-0.19769126
1429,2.8835346,0.055359662,-0.25228736,-0.1970804
1430,2.8855346,0.064522639,-0.26145032,-0.1970804
1431,2.8875346,0.084070332,-0.2761111,-0.19280434
1432,2.8895345,0.10300715,-0.29993483,-0.19219348
1433,2.8915345,0.11339186,-0.30909783,-0.19341521
1434,2.8935353,0.13477215,-0.33536503,-0.19158261
1435,2.8955353,0.15431984,-0.35735616,-0.18608482
1436,2.8975353,0.16409367,-0.37079519,-0.18058704
1437,2.8995352,0.18364136,-0.39095375,-0.17570011
1438,2.9015352,0.20624338,-0.41050145,-0.16959146
1439,2.903535,0.21357377,-0.4184427,-0.16959146
1440,2.905535,0.23556492,-0.43310347,-0.15981762
1441,2.9075351,0.24289529,-0.43982297,-0.15615243
1442,2.9095352,0.26061037,-0.45631635,-0.1512655
1443,2.9115352,0.27771461,-0.4642576,-0.14210252
1444,2.9135344,0.28626671,-0.4709771,-0.1390482
1445,2.9155335,0.30092749,-0.48258355,-0.12988523
1446,2.9175327,0.31497738,-0.48930305,-0.12194397
1447,2.9195318,0.32108605,-0.49602258,-0.11522446
1448,2.9215318,0.33330336,-0.50518554,-0.10300715
1449,2.9235317,0.34368807,-0.51801372,-0.089568116
1450,2.9255317,0.34918585,-0.52045721,-0.084070332
1451,2.9275316,0.36079228,-0.53145278,-0.074296482
1452,2.9295316,0.36873353,-0.53939402,-0.060857449
1453,2.9315316,0.37606391,-0.54367006,-0.057192259
1454,2.9335322,0.38583776,-0.55100048,-0.048029281
1455,2.935533,0.39500073,-0.55466563,-0.037033707
1456,2.9375331,0.40172026,-0.55710912,-0.032146782
1457,2.9395331,0.40660718,-0.55833083,-0.026648996
1458,2.9415331,0.41515929,-0.56016344,-0.02359467
1459,2.9435332,0.42126796,-0.55710912,-0.020540344
1460,2.9455332,0.42982006,-0.55344391,-0.018707749
1461,2.9475332,0.43776131,-0.54611355,-0.021762075
1462,2.9495333,0.44203737,-0.54305923,-0.022372939
1463,2.9515333,0.44875687,-0.53267449,-0.027870728
1464,2.9535324,0.45669812,-0.53084189,-0.027259862
1465,2.9555315,0.45791987,-0.52595496,-0.026648996
1466,2.9575307,0.4621959,-0.52106804,-0.024816401
1467,2.9595298,0.46830457,-0.51068336,-0.024205536
1468,2.9615298,0.47013718,-0.49968776,-0.022372939
1469,2.96353,0.47563496,-0.48075095,-0.020540344
1470,2.96553,0.48113275,-0.45265114,-0.021151209
1471,2.96753,0.48235446,-0.43982297,-0.025427265
1472,2.9695298,0.48235446,-0.41538838,-0.032146782
1473,2.9715298,0.48113275,-0.38667771,-0.038255434
1474,2.9735307,0.47930014,-0.37079519,-0.041920628
1475,2.9755315,0.47563496,-0.34208453,-0.048640147
1476,2.9775323,0.47258061,-0.31398472,-0.055359662
1477,2.9795332,0.4713589,-0.30054569,-0.059024855
1478,2.9815332,0.46402851,-0.28221974,-0.06207918
1479,2.9835332,0.45730901,-0.27244589,-0.070631295
1480,2.9855332,0.4536438,-0.2669481,-0.073074758
1481,2.9875333,0.44753516,-0.26939157,-0.077961676
1482,2.9895333,0.44020477,-0.28344148,-0.079794273
1483,2.9915333,0.4359287,-0.29077184,-0.082237735
1484,2.9935328,0.43226352,-0.31215215,-0.082237735
1485,2.9955319,0.43165267,-0.33658674,-0.082848601
1486,2.997531,0.43043092,-0.35613444,-0.08162687
1487,2.9995301,0.4292092,-0.398895,-0.074907348
1488,3.0015292,0.43287438,-0.44226643,-0.071242161
1489,3.0035292,0.43653959,-0.46120325,-0.064522639
1490,3.0055291,0.44264823,-0.49418998,-0.055359662
1491,3.0075291,0.45242208,-0.52351153,-0.047418416
1492,3.0095291,0.45669812,-0.53511798,-0.041920628
1493,3.0115291,0.46280679,-0.55710912,-0.029092457
1494,3.0135303,0.47074804,-0.57910025,-0.015653422
1495,3.0155312,0.47258061,-0.5888741,-0.0077121737
1496,3.0175321,0.47746754,-0.61025441,0.0087811882
1497,3.019533,0.4817436,-0.62858033,0.025885414
1498,3.021533,0.48479792,-0.63896507,0.037491854
1499,3.0235331,0.48601967,-0.6591236,0.053985216
1500,3.0255331,0.48540878,-0.67256266,0.074754633
1501,3.0275331,0.48663053,-0.67806041,0.086971939
1502,3.0295341,0.48296532,-0.69088858,0.10896309
1503,3.0315341,0.47807842,-0.70005155,0.13095424
1504,3.0335332,0.47380236,-0.70188415,0.13950635
1505,3.0355323,0.46463937,-0.70249504,0.16210836
1506,3.0375323,0.4554764,-0.69699723,0.17310394
1507,3.0395323,0.44020477,-0.69149947,0.19570595
1508,3.0415323,0.42371142,-0.68294734,0.21525364
1509,3.0435323,0.41515929,-0.67806041,0.22136229
1510,3.0455322,0.39683333,-0.66401052,0.23785566
1511,3.0475322,0.38278344,-0.64934975,0.25007296
1512,3.0495322,0.37545305,-0.64507371,0.25495988
1513,3.0515321,0.36323574,-0.63591075,0.26351199
1514,3.0535326,0.35040757,-0.62919122,0.27206412
1515,3.0555334,0.34307718,-0.62430429,0.27267498
1516,3.0575343,0.33269247,-0.62247169,0.27206412
1517,3.0595351,0.32230777,-0.62063909,0.26962066
1518,3.061536,0.31619912,-0.62063909,0.27023152
1519,3.0635361,0.30581442,-0.62308258,0.26229027
1520,3.0655361,0.2935971,-0.62308258,0.25740334
1521,3.0675361,0.29115364,-0.62735862,0.25251642
1522,3.0695362,0.28015807,-0.63163465,0.24396431
1523,3.0715362,0.27221683,-0.62919122,0.2354122
1524,3.073535,0.26794076,-0.62919122,0.23235787
1525,3.0755341,0.25816694,-0.63529986,0.22441661
1526,3.0775341,0.24594963,-0.6414085,0.2140319
1527,3.079534,0.24045183,-0.6414085,0.20914499
1528,3.081534,0.22823453,-0.64873886,0.19814941
1529,3.0835344,0.21479549,-0.65301496,0.1914299
1530,3.0855344,0.21174116,-0.6609562,0.18348865
1531,3.0875344,0.19402607,-0.66462141,0.17310394
1532,3.0895334,0.17997618,-0.66645396,0.16333009
1533,3.0915335,0.17386752,-0.66828656,0.15844317
1534,3.0935344,0.16103935,-0.66828656,0.15294538
1535,3.0955353,0.14882204,-0.66278881,0.14256068
1536,3.0975353,0.14149167,-0.66339964,0.14011721
1537,3.0995354,0.12927435,-0.6609562,0.13034338
1538,3.1015354,0.11705706,-0.6609562,0.12179126
1539,3.1035354,0.11217013,-0.66462141,0.12056953
1540,3.1055355,0.10300715,-0.66645396,0.11323915
1541,3.1075355,0.092011578,-0.67744958,0.10713049
1542,3.1095355,0.089568116,-0.68416905,0.10163271
1543,3.1115355,0.085902922,-0.69699723,0.087582804
1544,3.113535,0.088346384,-0.71837753,0.074143767
1545,3.1155341,0.088346384,-0.72998399,0.065591656
1546,3.1175332,0.09323331,-0.75319684,0.046654832
1547,3.1195324,0.10545062,-0.77640975,0.029550606
1548,3.1215323,0.10850494,-0.78862703,0.017944166
1549,3.1235323,0.12622003,-0.81489426,-0.00038179077
1550,3.1255319,0.14454599,-0.8405506,-0.019318614
1551,3.1275318,0.15737416,-0.852157,-0.030925052
1552,3.1295318,0.1830305,-0.87536991,-0.048029281
1553,3.1315318,0.20868684,-0.89430672,-0.068187833
1554,3.1335326,0.22518019,-0.89736104,-0.074907348
1555,3.1355335,0.25633433,-0.90102625,-0.090178981
1556,3.1375335,0.28809932,-0.89247411,-0.10728321
1557,3.1395335,0.30642527,-0.88514376,-0.11033753
1558,3.1415335,0.34002286,-0.86803949,-0.12011138
1559,3.1435331,0.37606391,-0.84238315,-0.12988523
1560,3.1455331,0.39133555,-0.82283551,-0.13110696
1561,3.1475332,0.4292092,-0.78557271,-0.13843733
1562,3.1495332,0.46341765,-0.73914695,-0.1372156
1563,3.1515328,0.47746754,-0.71104717,-0.1372156
1564,3.1535319,0.51473033,-0.65606928,-0.13355042
1565,3.155531,0.52878022,-0.62491512,-0.13171782
1566,3.1575301,0.56054521,-0.56138515,-0.12927435
1567,3.1595292,0.59292108,-0.49418998,-0.1286635
1568,3.1615294,0.62407523,-0.41783184,-0.1286635
1569,3.1635294,0.63934684,-0.37995818,-0.13293955
1570,3.1655294,0.6680575,-0.30176744,-0.14026994
1571,3.1675294,0.69554645,-0.22479841,-0.14760031
1572,3.1695294,0.7053203,-0.18448131,-0.15309811
1573,3.1715294,0.73158747,-0.10079277,-0.16836974
1574,3.1735306,0.75113517,-0.020158553,-0.18547396
1575,3.1755315,0.76396334,0.024434609,-0.19463694
1576,3.1775324,0.78290015,0.11178834,-0.21601722
1577,3.1795333,0.79389572,0.15577064,-0.2270128
1578,3.1815334,0.81466514,0.24251351,-0.25083655
1579,3.1835334,0.82932591,0.32620203,-0.27527115
1580,3.1855338,0.83604544,0.36651915,-0.28871018
1581,3.1875338,0.85009533,0.44165558,-0.31925344
1582,3.1895338,0.86475611,0.51190507,-0.34613153
1583,3.1915338,0.86597782,0.54550266,-0.36323574
1584,3.193533,0.87819517,0.60475659,-0.39988765
1585,3.1955321,0.88980156,0.65790188,-0.43348524
1586,3.1975312,0.88919073,0.68233645,-0.45058948
1587,3.1995303,0.89774281,0.72204274,-0.48968485
1588,3.2015294,0.9020189,0.75930548,-0.52878022
1589,3.2035291,0.90324062,0.77335542,-0.54832792
1590,3.2055291,0.90873843,0.79412484,-0.59047765
1591,3.2075291,0.91667968,0.80634212,-0.63140559
1592,3.209529,0.919734,0.81000733,-0.65400761
1593,3.2115294,0.93011868,0.80267692,-0.69982249
1594,3.2135302,0.94050342,0.78862703,-0.74808085
1595,3.2155311,0.94844466,0.77518797,-0.77190459
1596,3.217532,0.95821851,0.7507534,-0.81099999
1597,3.2195329,0.96493798,0.71715581,-0.84887362
1598,3.2215327,0.96493798,0.69882983,-0.86597782
1599,3.2235327,0.96371627,0.65545839,-0.89529938
1600,3.2255328,0.95944023,0.61086524,-0.92095572
1601,3.2275328,0.95516419,0.58459806,-0.9313404
1602,3.2295328,0.94600117,0.5345071,-0.94416857
1603,3.2315328,0.93805993,0.49541172,-0.9527207
1604,3.2335317,0.93072957,0.47647488,-0.9527207
1605,3.2355316,0.92401004,0.44226643,-0.94600117
1606,3.2375316,0.9154579,0.41722095,-0.93011868
1607,3.2395312,0.91423619,0.4092797,-0.92034483
1608,3.2415311,0.91912311,0.40622538,-0.88980156
1609,3.2435311,0.93011868,0.41966441,-0.85437143
1610,3.2455311,0.93561649,0.43676865,-0.83726716
1611,3.2475311,0.95333159,0.46242499,-0.79939353
1612,3.2495311,0.97715533,0.50213122,-0.75296777
1613,3.2515311,0.9918161,0.52290064,-0.73158747
1614,3.2535319,1.0211376,0.5693264,-0.68210739
1615,3.2555328,1.0492374,0.61025441,-0.63445991
1616,3.2575337,1.0632873,0.62552601,-0.60819268
1617,3.2595345,1.0913872,0.64446282,-0.55260396
1618,3.2615354,1.1152109,0.64934975,-0.49457178
1619,3.2635357,1.1249847,0.64873886,-0.46402851
1620,3.2655358,1.1500301,0.6395759,-0.39866593
1621,3.2675358,1.1701888,0.62063909,-0.33819026
1622,3.2695358,1.1824061,0.60475659,-0.30642527
1623,3.2715359,1.1982886,0.55833083,-0.23861924
1624,3.273535,1.2074515,0.53939402,-0.20257819
1625,3.2755342,1.2312752,0.50823987,-0.14393513
1626,3.2775333,1.2453252,0.48685959,-0.089568116
1627,3.2795332,1.2550991,0.47830749,-0.038255434
1628,3.2815332,1.2612077,0.47586402,-0.013820826
1629,3.2835332,1.2679272,0.47891834,0.039324451
1630,3.2855331,1.2703706,0.48563787,0.09552405
1631,3.2875331,1.2715924,0.48930305,0.12667818
1632,3.2895331,1.2728142,0.49113566,0.18409951
1633,3.291533,1.2667054,0.49174652,0.24518603
1634,3.2935338,1.2618185,0.49480084,0.27450758
1635,3.2955338,1.2477686,0.48991394,0.33559409
1636,3.2975339,1.2251666,0.48747048,0.39423716
1637,3.2995343,1.2105058,0.48319441,0.42111522
1638,3.3015343,1.1762974,0.47586402,0.47548223
1639,3.3035344,1.1555279,0.4709771,0.50113857
1640,3.3055344,1.1072696,0.46364671,0.54817522
1641,3.3075344,1.0449613,0.44837508,0.59093577
1642,3.3095345,1.0131963,0.43799037,0.60742915
1643,3.3115345,0.94233602,0.41416663,0.63919413
1644,3.3135336,0.865367,0.3830125,0.66057438
1645,3.3155327,0.82871509,0.36224309,0.66912651
1646,3.3175319,0.74563742,0.31337386,0.68195468
1647,3.319531,0.66561407,0.2565634,0.69111764
1648,3.321531,0.62651867,0.21930063,0.69050682
1649,3.3235311,0.54893875,0.12461651,0.68623072
1650,3.325531,0.47868928,0.012217305,0.67279172
1651,3.327531,0.4469243,-0.043371432,0.66729391
1652,3.329531,0.39805508,-0.13866641,0.64957881
1653,3.3315309,0.36812267,-0.2125811,0.63003117
1654,3.3335318,0.35651624,-0.24862215,0.62025732
1655,3.3355326,0.34857497,-0.31031954,0.59154665
1656,3.3375335,0.34674239,-0.38179079,0.55611646
1657,3.3395335,0.34918585,-0.41599923,0.53107095
1658,3.3415335,0.3656792,-0.4728097,0.47426051
1659,3.3435336,0.39011383,-0.50823987,0.41011965
1660,3.3455336,0.4078289,-0.5186246,0.37774381
1661,3.3475336,0.44875687,-0.52656585,0.30505082
1662,3.3495337,0.49640438,-0.52656585,0.22319488
1663,3.3515337,0.52144986,-0.52595496,0.18226692
1664,3.3535329,0.56848645,-0.50946164,0.097967513
1665,3.355532,0.61430138,-0.48747048,0.012446379
1666,3.3575311,0.6350708,-0.47525316,-0.029703323
1667,3.3595302,0.67111182,-0.44959682,-0.11522446
1668,3.3615302,0.70409858,-0.42332962,-0.19769126
1669,3.3635301,0.71814847,-0.40622538,-0.23373231
1670,3.3655313,0.74136132,-0.37140608,-0.30276009
1671,3.3675313,0.7596873,-0.32375857,-0.35895967
1672,3.3695313,0.76640683,-0.29688051,-0.38095084
1673,3.3715313,0.77862412,-0.23640485,-0.42187881
1674,3.3735322,0.78228933,-0.16920967,-0.4554764
1675,3.3755331,0.78473276,-0.13988814,-0.46708283
1676,3.3775333,0.78106755,-0.078190751,-0.48479792
1677,3.3795338,0.77373719,-0.027488936,-0.49518263
1678,3.3815339,0.77007198,-0.002443461,-0.49823695
1679,3.3835338,0.7578547,0.03481932,-0.50312388
1680,3.3855338,0.74869174,0.072692961,-0.50312388
1681,3.3875338,0.74319392,0.092240654,-0.50739992
1682,3.3895338,0.73708528,0.13561209,-0.51595205
1683,3.3915338,0.738307,0.18509217,-0.52633679
1684,3.393533,0.73891789,0.20586158,-0.53488886
1685,3.3955321,0.74563742,0.2443461,-0.54893875
1686,3.3975312,0.75296777,0.27427849,-0.55810177
1687,3.3995304,0.76029813,0.28527406,-0.57215166
1688,3.4015295,0.77373719,0.30787608,-0.59353197
1689,3.4035296,0.7908414,0.32742378,-0.60880357
1690,3.4055296,0.79756093,0.33169982,-0.6173557
1691,3.4075296,0.81283259,0.32803464,-0.62529695
1692,3.4095295,0.82077384,0.30726522,-0.62774038
1693,3.4115295,0.81955206,0.29077184,-0.62407523
1694,3.4135299,0.81955206,0.25045475,-0.61918831
1695,3.4155308,0.81283259,0.21135938,-0.61246878
1696,3.4175316,0.80916739,0.19608775,-0.60880357
1697,3.4195325,0.79633921,0.1600467,-0.60086232
1698,3.4215326,0.78290015,0.13439035,-0.59658629
1699,3.4235326,0.77373719,0.12644911,-0.59719712
1700,3.4255314,0.75907642,0.10812315,-0.59231019
1701,3.4275314,0.73891789,0.094684117,-0.58742326
1702,3.4295315,0.72670054,0.082466811,-0.58436894
1703,3.4315315,0.70165509,0.063529983,-0.57520598
1704,3.4335306,0.69004864,0.053145275,-0.57459509
1705,3.4355306,0.66500318,0.035430185,-0.5648213
1706,3.4375313,0.63568163,0.020158553,-0.54954964
1707,3.4395316,0.62468606,0.015271631,-0.54221928
1708,3.4415315,0.60269493,0.0054977871,-0.53244543
1709,3.443532,0.58375812,0.0030543262,-0.52022809
1710,3.4455319,0.57154077,-0.0012217305,-0.51106513
1711,3.4475319,0.55260396,0.00061086525,-0.49579349
1712,3.4495319,0.53549975,0.0030543262,-0.48113275
1713,3.4515319,0.52939111,0.0079412479,-0.4731915
1714,3.4535328,0.51656294,0.018936822,-0.45486555
1715,3.4555337,0.50923252,0.03481932,-0.43653959
1716,3.4575346,0.5043456,0.045204028,-0.42982006
1717,3.4595355,0.49884784,0.069027774,-0.41332671
1718,3.4615364,0.49701524,0.098349303,-0.39744419
1719,3.4635367,0.4976261,0.1142318,-0.38767037
1720,3.4655367,0.49640438,0.14721853,-0.37117699
1721,3.4675367,0.49823695,0.17898351,-0.3552945
1722,3.4695367,0.50129128,0.19669861,-0.34613153
1723,3.4715367,0.50312388,0.23335053,-0.33269247
1724,3.4735362,0.51106513,0.26939157,-0.31864259
1725,3.4755354,0.51534116,0.29260445,-0.30947959
1726,3.4775354,0.52022809,0.32620203,-0.29481885
1727,3.4795353,0.52939111,0.35918877,-0.27893636
1728,3.4815353,0.53000194,0.37079519,-0.27221683
1729,3.4835353,0.53916496,0.39522982,-0.25633433
1730,3.4855352,0.543441,0.41111231,-0.24472789
1731,3.4875352,0.54405189,0.4184427,-0.23739751
1732,3.4895352,0.55138224,0.43249258,-0.22579107
1733,3.4915351,0.55810177,0.43249258,-0.20868684
1734,3.4935359,0.55993438,0.43310347,-0.2007456
1735,3.4955359,0.56604302,0.42821655,-0.18241963
1736,3.497536,0.56665385,0.41661009,-0.16775887
1737,3.499536,0.56543213,0.40744713,-0.15859589
1738,3.501536,0.56054521,0.38667771,-0.14454599
1739,3.5035352,0.55504745,0.35308012,-0.13110696
1740,3.5055353,0.55260396,0.33475417,-0.12438744
1741,3.5075353,0.5452736,0.29932398,-0.11217013
1742,3.5095353,0.54038668,0.25289822,-0.10361802
1743,3.5115351,0.53794318,0.23029619,-0.10483975
1744,3.5135341,0.53305626,0.17654006,-0.099952824
1745,3.5155332,0.53183454,0.12278391,-0.10056369
1746,3.5175323,0.52878022,0.098960169,-0.099952824
1747,3.5195314,0.5257259,0.040927973,-0.10667235
1748,3.5215314,0.52083898,-0.017104227,-0.10606148
1749,3.523531,0.51900637,-0.045204028,-0.10850494
1750,3.5255309,0.51717377,-0.10629055,-0.10789407
1751,3.5275309,0.51595205,-0.16065755,-0.10545062
1752,3.529531,0.51228684,-0.1863139,-0.10789407
1753,3.531531,0.5080108,-0.23518312,-0.10483975
1754,3.5335317,0.50678909,-0.27550024,-0.10239629
1755,3.5355326,0.50495648,-0.29260445,-0.10239629
1756,3.5375327,0.4994587,-0.31948254,-0.099952824
1757,3.5395327,0.4994587,-0.33536503,-0.10178542
1758,3.5415327,0.4976261,-0.34147367,-0.10239629
1759,3.5435328,0.49640438,-0.35063666,-0.098731093
1760,3.5455328,0.4994587,-0.35857791,-0.092622444
1761,3.5475328,0.4994587,-0.36346483,-0.090789847
1762,3.5495328,0.50312388,-0.35735616,-0.086513788
1763,3.5515328,0.5061782,-0.33903021,-0.087124653
1764,3.5535319,0.5080108,-0.32498032,-0.086513788
1765,3.555531,0.51411945,-0.29504791,-0.090789847
1766,3.5575301,0.51595205,-0.2779437,-0.095676772
1767,3.5595292,0.52450418,-0.23579398,-0.10483975
1768,3.5615292,0.53611064,-0.19792034,-0.11583532
1769,3.5635295,0.54954964,-0.15760323,-0.12927435
1770,3.5655295,0.55443656,-0.13622294,-0.13477215
1771,3.5675295,0.57276255,-0.091018923,-0.14943291
1772,3.5695294,0.57764947,-0.072692961,-0.15798502
1773,3.5715297,0.5959754,-0.031764992,-0.17203492
1774,3.5735306,0.60880357,0.0030543262,-0.1830305
1775,3.5755315,0.61796653,0.020769419,-0.19280434
1776,3.5775324,0.6332382,0.054367006,-0.20441078
1777,3.5795333,0.64545548,0.078190751,-0.21662809
1778,3.5815333,0.65522933,0.08857546,-0.21907155
1779,3.5835333,0.65950537,0.10262536,-0.22579107
1780,3.5855334,0.67233354,0.10873401,-0.23434319
1781,3.5875334,0.67172271,0.10812315,-0.23617578
1782,3.5895334,0.68027478,0.10445796,-0.23739751
1783,3.5915334,0.6857726,0.093462385,-0.23800837
1784,3.5935326,0.68821603,0.087353729,-0.24045183
1785,3.5955317,0.69310296,0.072692961,-0.24167356
1786,3.5975308,0.69493556,0.058643065,-0.24167356
1787,3.5995299,0.69310296,0.051312681,-0.23800837
1788,3.601529,0.69432473,0.039706241,-0.23251058
1789,3.603529,0.69493556,0.033597589,-0.2233476
1790,3.605529,0.69249213,0.034208454,-0.21784982
1791,3.607529,0.68699431,0.030543262,-0.20196733
1792,3.6095291,0.67905307,0.031154128,-0.18669569
1793,3.6115291,0.67599875,0.032986723,-0.17508925
1794,3.61353,0.6662249,0.043982297,-0.15737416
1795,3.6155309,0.65461844,0.055588737,-0.1390482
1796,3.6175322,0.6503424,0.064751714,-0.13110696
1797,3.6195328,0.64423376,0.081855945,-0.11339186
1798,3.6215328,0.63690341,0.10262536,-0.098120227
1799,3.6235328,0.63629252,0.11789699,-0.090178981
1800,3.6255324,0.63445991,0.1441642,-0.08162687
1801,3.6275324,0.63140559,0.17470746,-0.069409564
1802,3.6295324,0.63201648,0.18936823,-0.062690049
1803,3.6315324,0.63568163,0.22113322,-0.053527068
1804,3.6335316,0.63995773,0.25289822,-0.041920628
1805,3.6355307,0.64484465,0.26816985,-0.038255434
1806,3.6375303,0.65400761,0.30176744,-0.030925052
1807,3.6395303,0.66378146,0.33414328,-0.018096883
1808,3.6415303,0.66744661,0.3549127,-0.015653422
1809,3.6435302,0.68149656,0.39522982,-0.003436117
1810,3.6455302,0.69249213,0.42455134,0.0032834008
1811,3.6475302,0.69554645,0.44409904,0.0051159966
1812,3.6495301,0.7071529,0.4709771,0.010002919
1813,3.6515301,0.7187593,0.49785519,0.013057245
1814,3.6535314,0.72425711,0.51190507,0.019165898
1815,3.6555323,0.73342007,0.52656585,0.024663685
1816,3.6575332,0.74380481,0.5381723,0.028328875
1817,3.6595341,0.74869174,0.54367006,0.031383201
1818,3.661535,0.7560221,0.55283302,0.035048392
1819,3.6635351,0.76274163,0.55710912,0.04176791
1820,3.6655352,0.76579595,0.5540548,0.042989641
1821,3.6675352,0.77434808,0.54672438,0.050320026
1822,3.6695351,0.77923501,0.51923543,0.057039544
1823,3.6715351,0.77984583,0.50029862,0.064369924
1824,3.6735342,0.78228933,0.46486846,0.080252424
1825,3.6755333,0.78290015,0.44593164,0.093080595
1826,3.6775329,0.78106755,0.39828414,0.11323915
1827,3.6795331,0.77862412,0.35002577,0.12728904
1828,3.6815331,0.7755698,0.29565877,0.14683673
1829,3.6835331,0.77190459,0.26572639,0.15355626
1830,3.6855335,0.76518506,0.20402899,0.16210836
1831,3.6875336,0.7578547,0.14172074,0.17004961
1832,3.6895336,0.7560221,0.1160644,0.17615826
1833,3.6915336,0.74685913,0.067806043,0.18226692
1834,3.6935345,0.73891789,0.02321288,0.18715385
1835,3.6955354,0.73586357,0.0061086523,0.1877647
1836,3.6975358,0.72608972,-0.021991149,0.18654297
1837,3.6995358,0.72364622,-0.031154128,0.18471038
1838,3.7015358,0.71509415,-0.03848451,0.18287778
1839,3.7035358,0.7053203,-0.037262779,0.17799085
1840,3.7055358,0.69860077,-0.034208454,0.17310394
1841,3.7075358,0.6876052,-0.018936822,0.17004961
1842,3.7095358,0.67416614,0.0073303832,0.16821702
1843,3.7115354,0.6662249,0.020158553,0.16577356
1844,3.7135342,0.65156412,0.0580322,0.16394097
1845,3.7155333,0.64117944,0.097738437,0.16027577
1846,3.7175324,0.63201648,0.11789699,0.16027577
1847,3.7195315,0.61857742,0.16371189,0.16271923
1848,3.7215315,0.60758185,0.20830505,0.16210836
1849,3.7235313,0.60269493,0.23090707,0.16088663
1850,3.7255313,0.58986676,0.27488935,0.16455182
1851,3.7275312,0.57887119,0.32009339,0.1651627
1852,3.7295312,0.5764277,0.33964106,0.1651627
1853,3.7315312,0.56909734,0.38179079,0.16577356
1854,3.7335321,0.5648213,0.41905355,0.17004961
1855,3.735533,0.56543213,0.43737951,0.17188221
1856,3.7375331,0.56604302,0.46731192,0.17310394
1857,3.7395331,0.56726474,0.49480084,0.17676914
1858,3.7415331,0.56848645,0.50640726,0.17982346
1859,3.7435332,0.57276255,0.52778757,0.18348865
1860,3.7455332,0.57887119,0.54000485,0.18959729
1861,3.7475331,0.57887119,0.54672438,0.19081903
1862,3.7495331,0.58436894,0.54855698,0.19265163
1863,3.751533,0.58620155,0.54855698,0.19876029
1864,3.7535321,0.58742326,0.54611355,0.20059288
1865,3.7555312,0.59047765,0.54183745,0.20425807
1866,3.7575303,0.59414279,0.53511798,0.21158844
1867,3.7595294,0.59231019,0.5320636,0.21281017
1868,3.7615294,0.59475368,0.52167892,0.2195297
1869,3.7635294,0.59414279,0.50823987,0.22380576
1870,3.7655295,0.58925587,0.5015204,0.22869268
1871,3.7675295,0.58375812,0.48747048,0.23419046
1872,3.7695295,0.58070379,0.47219884,0.24090998
1873,3.7715299,0.57703859,0.46364671,0.24090998
1874,3.7735308,0.57398427,0.44959682,0.24701864
1875,3.7755317,0.56726474,0.43737951,0.25007296
1876,3.7775326,0.5587126,0.42821655,0.25068381
1877,3.7795335,0.54832792,0.41294491,0.25068381
1878,3.7815335,0.53611064,0.38973203,0.24885122
1879,3.7835335,0.52694762,0.38056904,0.2512947
1880,3.7855335,0.50862169,0.3567453,0.2494621
1881,3.7875335,0.48846313,0.32559118,0.25068381
1882,3.7895335,0.47685668,0.30787608,0.24824037
1883,3.7915335,0.45425466,0.2779437,0.2512947
1884,3.7935326,0.42493314,0.24678956,0.2512947
1885,3.7955317,0.41332671,0.23518312,0.25495988
1886,3.7975308,0.38767037,0.22235495,0.2512947
1887,3.7995299,0.37606391,0.21074851,0.25007296
1888,3.801529,0.34918585,0.19425514,0.24518603
1889,3.803529,0.32169691,0.17348573,0.24335344
1890,3.805529,0.29542971,0.15027285,0.24029912
1891,3.807529,0.28321239,0.14049901,0.23907739
1892,3.809529,0.25816694,0.12034045,0.23419046
1893,3.811529,0.23861924,0.10384709,0.23052527
1894,3.8135299,0.2270128,0.093462385,0.22808181
1895,3.8155308,0.20441078,0.080634214,0.2195297
1896,3.8175317,0.18730655,0.069027774,0.21036673
1897,3.8195326,0.18058704,0.063529983,0.2036472
1898,3.8215327,0.16653714,0.056810468,0.18959729
1899,3.8235327,0.1567633,0.054367006,0.17310394
1900,3.8255326,0.15248723,0.048869219,0.16394097
1901,3.8275326,0.14821118,0.039095376,0.145615
1902,3.8295326,0.14454599,0.029321533,0.13523029
1903,3.8315325,0.1427134,0.021380283,0.11385001
1904,3.8335316,0.14393513,0.0012217305,0.091858864
1905,3.8355316,0.14210252,-0.0067195175,0.082085021
1906,3.8375316,0.14882204,-0.032986723,0.058261272
1907,3.8395316,0.1512655,-0.06169739,0.032604933
1908,3.8415316,0.1549307,-0.077579886,0.019776762
1909,3.8435316,0.16103935,-0.10751228,-0.0052687125
1910,3.8455316,0.16103935,-0.13927728,-0.027870728
1911,3.8475317,0.16287194,-0.15760323,-0.041920628
1912,3.8495317,0.1653154,-0.19364429,-0.065133505
1913,3.8515317,0.15981762,-0.22418754,-0.084070332
1914,3.8535335,0.16042848,-0.24251351,-0.096898496
1915,3.8555344,0.15370896,-0.27550024,-0.112781
1916,3.8575352,0.14576772,-0.30543262,-0.12744176
1917,3.8595361,0.1390482,-0.31581733,-0.13416128
1918,3.8615369,0.12622003,-0.33964106,-0.1427134
1919,3.8635369,0.11033753,-0.35796702,-0.15737416
1920,3.8655369,0.099952824,-0.36041048,-0.16287194
1921,3.8675369,0.083459467,-0.36713001,-0.17386752
1922,3.8695369,0.066355236,-0.36285394,-0.18058704
1923,3.8715369,0.05841399,-0.3549127,-0.18425223
1924,3.873536,0.041920628,-0.33841935,-0.18241963
1925,3.8755351,0.024205536,-0.31215215,-0.17508925
1926,3.8775349,0.016264288,-0.30176744,-0.17447838
1927,3.8795349,-0.00022907447,-0.26755899,-0.16409367
1928,3.8815348,-0.018555032,-0.2321288,-0.15187638
1929,3.8835348,-0.027107146,-0.21074851,-0.14821118
1930,3.8855348,-0.04604397,-0.15882497,-0.13477215
1931,3.8875348,-0.06925685,-0.10445796,-0.12438744
1932,3.8895348,-0.08086329,-0.075136423,-0.1231657
1933,3.8915349,-0.10468704,-0.012217305,-0.11339186
1934,3.8935358,-0.12789991,0.05375614,-0.10606148
1935,3.8955358,-0.13950635,0.080023348,-0.10606148
1936,3.8975358,-0.16760615,0.13561209,-0.10667235
1937,3.8995359,-0.19937114,0.18081611,-0.10361802
1938,3.9015359,-0.21586451,0.19730948,-0.10422888
1939,3.9035354,-0.2512947,0.226631,-0.10300715
1940,3.9055354,-0.29100093,0.23884831,-0.10117456
1941,3.9075353,-0.31054863,0.24373524,-0.098120227
1942,3.9095353,-0.35514179,0.23701571,-0.090178981
1943,3.9115353,-0.40767619,0.22296582,-0.084681198
1944,3.9135335,-0.43333253,0.21197024,-0.078572541
1945,3.9155326,-0.48953214,0.18509217,-0.068798698
1946,3.9175318,-0.55184036,0.15088372,-0.055970527
1947,3.9195309,-0.58482713,0.1301143,-0.048640147
1948,3.9215309,-0.65385491,0.09285152,-0.032757647
1949,3.9235309,-0.72715873,0.054367006,-0.016264288
1950,3.9255309,-0.76258892,0.037262779,-0.0077121737
1951,3.9275306,-0.84077966,0.0091629783,0.010613783
1952,3.9295306,-0.91652691,-0.018936822,0.027107146
1953,3.9315306,-0.95684403,-0.027488936,0.040546179
1954,3.9335314,-1.0289261,-0.039095376,0.052763484
1955,3.9355323,-1.1052843,-0.049480084,0.066813387
1956,3.9375325,-1.143158,-0.05375614,0.073532902
1957,3.9395326,-1.2195162,-0.060475659,0.086971939
1958,3.9415326,-1.2934308,-0.064140849,0.097356647
1959,3.9435326,-1.3282502,-0.06963864,0.10407617
1960,3.9455327,-1.3954453,-0.080023348,0.11201742
1961,3.9475327,-1.4608079,-0.092240654,0.10957395
1962,3.9495327,-1.4944055,-0.093462385,0.10774136
1963,3.9515327,-1.5658767,-0.091629788,0.097967513
1964,3.9535318,-1.5988634,-0.079412483,0.091858864
1965,3.9555309,-1.6752216,-0.051312681,0.074143767
1966,3.95753,-1.754634,-0.039706241,0.057039544
1967,3.9595291,-1.7961729,-0.037873644,0.045433104
1968,3.9615291,-1.8798615,-0.031764992,0.030161472
1969,3.9635295,-1.96355,-0.033597589,0.016111571
1970,3.9655295,-2.004478,-0.035430185,0.010002919
1971,3.9675296,-2.0887773,-0.043371432,0.0069485921
1972,3.9695296,-2.1675789,-0.057421334,0.0045051314
1973,3.9715296,-2.2085068,-0.06536258,0.0032834008
1974,3.9735305,-2.285476,-0.09590584,0.0081703225
1975,3.9755314,-2.3593907,-0.13439035,0.018555032
1976,3.9775323,-2.3923774,-0.15821409,0.024052819
1977,3.9795332,-2.457129,-0.21319197,0.043600507
1978,3.9815333,-2.5066092,-0.27916542,0.072922036
1979,3.9835333,-2.5255461,-0.31276301,0.085139342
1980,3.9855333,-2.5621979,-0.37140608,0.11629347
1981,3.9875336,-2.5902977,-0.42271876,0.14072809
1982,3.9895336,-2.6031258,-0.4447099,0.15233453
1983,3.9915336,-2.6214519,-0.47891834,0.16943875
1984,3.9935327,-2.6416104,-0.516792,0.18409951
1985,3.9955318,-2.6538277,-0.53267449,0.19204076
1986,3.9975309,-2.670321,-0.5693264,0.20425807
1987,3.99953,-2.6898687,-0.59925878,0.21281017
1988,4.0015292,-2.6984208,-0.60720003,0.2176971
1989,4.0035292,-2.7198012,-0.62063909,0.22624922
1990,4.0055296,-2.7387381,-0.6200282,0.23602305
1991,4.0075295,-2.7515662,-0.61697388,0.24396431
1992,4.0095295,-2.7717247,-0.59864795,0.25495988
1993,4.0115295,-2.7967701,-0.57299161,0.26473373
1994,4.0135304,-2.8120418,-0.55771995,0.27206412
1995,4.0155312,-2.8413634,-0.53023106,0.28611401
1996,4.0175322,-2.8719065,-0.4972443,0.30321825
1997,4.0195331,-2.8896217,-0.48075095,0.31604642
1998,4.0215331,-2.9207759,-0.44043383,0.34109187
1999,4.0235331,-2.9537625,-0.39767328,0.37041342
2000,4.0255331,-2.9702559,-0.37384954,0.39118284
2001,4.0275331,-3.00141,-0.31276301,0.42416954
2002,4.0295331,-3.0319533,-0.24495697,0.47120619
2003,4.0315331,-3.0435598,-0.20891592,0.49502993
2004,4.0335322,-3.0667727,-0.12950343,0.53901219
2005,4.0355321,-3.0808225,-0.036651913,0.58360541
2006,4.0375321,-3.0857093,0.01038471,0.60193133
2007,4.0395321,-3.0863204,0.13439035,0.62270075
2008,4.041532,-3.0747139,0.28038713,0.62208992
2009,4.043532,-3.0643291,0.36529741,0.6110943
2010,4.0455321,-3.0350077,0.54244834,0.57505327
2011,4.0475321,-2.9849167,0.7312057,0.51702106
2012,4.0495321,-2.9531517,0.82466811,0.4815909
2013,4.0515322,-2.8865674,1.0085385,0.40523273
2014,4.0535327,-2.8059332,1.1759156,0.3215442
2015,4.0555336,-2.7631726,1.2589933,0.27939448
2016,4.0575345,-2.6739862,1.4074335,0.199982
2017,4.0595354,-2.5780804,1.5375478,0.12728904
2018,4.0615361,-2.5310438,1.5949692,0.094913185
2019,4.0635361,-2.4333053,1.6872098,0.046654832
2020,4.0655357,-2.3288474,1.7592919,0.016722437
2021,4.0675357,-2.2805891,1.7898352,0.0075594573
2022,4.0695357,-2.1773529,1.8289305,-0.0040469822
2023,4.0715357,-2.0790036,1.8564194,-0.00099265599
2024,4.0735348,-2.0325778,1.8668042,0.003894266
2025,4.0755339,-1.9403371,1.8796324,0.018555032
2026,4.0775339,-1.8542051,1.8753563,0.039935317
2027,4.0795339,-1.8144989,1.8723019,0.04970916
2028,4.0815338,-1.7509688,1.8460348,0.068645984
2029,4.0835337,-1.6953801,1.8057177,0.086971939
2030,4.0855328,-1.6715564,1.7763962,0.093691453
2031,4.0875328,-1.6336827,1.7055358,0.1034653
2032,4.0895328,-1.6031395,1.6151277,0.11323915
2033,4.0915328,-1.5958091,1.568702,0.11690433
2034,4.0935337,-1.5817592,1.4654657,0.12423472
2035,4.0955334,-1.5811484,1.4092661,0.12728904
2036,4.0975334,-1.5793158,1.2938126,0.13095424
2037,4.0995335,-1.5835918,1.1795808,0.13523029
2038,4.1015335,-1.5884787,1.1258247,0.13523029
2039,4.1035333,-1.5958091,1.0231993,0.13828462
2040,4.1055327,-1.6061938,0.92912602,0.13950635
2041,4.1075326,-1.6061938,0.89064151,0.13645202
2042,4.1095326,-1.614746,0.82283551,0.12667818
2043,4.1115326,-1.6220763,0.77457714,0.11262828
2044,4.1135321,-1.6281849,0.75502944,0.10224357
2045,4.1155312,-1.6361262,0.73059481,0.085139342
2046,4.1175303,-1.650176,0.72570789,0.074143767
2047,4.1195294,-1.6587282,0.72815138,0.068645984
2048,4.1215294,-1.6727781,0.7293731,0.063759059
2049,4.1235294,-1.6862172,0.72692966,0.058261272
2050,4.1255294,-1.6911041,0.72204274,0.056428678
2051,4.1275291,-1.7033213,0.72326446,0.053985216
2052,4.1295291,-1.7063757,0.71471232,0.050930891
2053,4.1315297,-1.7045431,0.70860368,0.047265697
2054,4.1335306,-1.7014887,0.70249504,0.037491854
2055,4.1355315,-1.6972127,0.69577551,0.030161472
2056,4.1375315,-1.6941584,0.68661255,0.025274549
2057,4.1395315,-1.6856062,0.64629543,0.0093920529
2058,4.1415315,-1.6709455,0.57604593,-0.015042556
2059,4.1435314,-1.6605608,0.5345071,-0.028481591
2060,4.1455322,-1.6410131,0.43921211,-0.053527068
2061,4.1475322,-1.6251307,0.34941491,-0.077961676
2062,4.1495322,-1.6196328,0.30604348,-0.089568116
2063,4.1515322,-1.6171894,0.22296582,-0.11033753
2064,4.1535313,-1.6208546,0.14782938,-0.13232869
2065,4.1555308,-1.6269633,0.1160644,-0.13660474
2066,4.1575299,-1.6385697,0.053145275,-0.15248723
2067,4.159529,-1.6526196,-0.0036651916,-0.16287194
2068,4.1615289,-1.6611717,-0.029321533,-0.16775887
2069,4.1635292,-1.6801085,-0.0842994,-0.16592628
2070,4.1655297,-1.6923258,-0.13805555,-0.15920675
2071,4.1675297,-1.6984345,-0.17165314,-0.15798502
2072,4.1695298,-1.7027105,-0.2406809,-0.14515686
2073,4.1715298,-1.6996561,-0.31581733,-0.13965906
2074,4.1735307,-1.7008779,-0.35185838,-0.13782647
2075,4.1755316,-1.6911041,-0.42821655,-0.13538301
2076,4.1775325,-1.6770542,-0.4972443,-0.14026994
2077,4.1795334,-1.6703347,-0.53023106,-0.1390482
2078,4.1815335,-1.6575065,-0.59009582,-0.15065464
2079,4.1835335,-1.6404023,-0.63652158,-0.16592628
2080,4.1855334,-1.6336827,-0.66401052,-0.17081319
2081,4.1875338,-1.6165785,-0.69577551,-0.19341521
2082,4.1895338,-1.600696,-0.71898842,-0.2129629
2083,4.1915332,-1.5933657,-0.73242742,-0.22212587
2084,4.1935323,-1.5732071,-0.75014251,-0.24594963
2085,4.1955314,-1.5628223,-0.75502944,-0.26244298
2086,4.1975304,-1.5408312,-0.76174897,-0.29054278
2087,4.1995296,-1.5170075,-0.76785761,-0.32352951
2088,4.2015287,-1.5072336,-0.76907933,-0.339412
2089,4.203529,-1.4870751,-0.77579886,-0.36506835
2090,4.205529,-1.4699708,-0.77946407,-0.38950294
2091,4.207529,-1.4528667,-0.7819075,-0.4078289
2092,4.2095291,-1.4412602,-0.77946407,-0.41699189
2093,4.2115291,-1.4278212,-0.77885318,-0.42982006
2094,4.2135298,-1.4113278,-0.77640975,-0.4359287
2095,4.2155307,-1.4052192,-0.77763146,-0.43837216
2096,4.2175316,-1.3887258,-0.77824235,-0.4359287
2097,4.2195324,-1.3679564,-0.7703011,-0.42798746
2098,4.2215324,-1.3594042,-0.76174897,-0.41821361
2099,4.2235324,-1.3386348,-0.74159038,-0.39683333
2100,4.2255324,-1.3160328,-0.71593404,-0.3748422
2101,4.2275324,-1.3032047,-0.70310593,-0.36262488
2102,4.2295324,-1.2793809,-0.6743952,-0.33696854
2103,4.2315324,-1.265331,-0.66034532,-0.32658383
2104,4.2335315,-1.2415073,-0.63102382,-0.30031663
2105,4.2355314,-1.21524,-0.59986967,-0.27466029
2106,4.2375314,-1.2011901,-0.58581978,-0.26183212
2107,4.2395314,-1.1730903,-0.55955255,-0.23800837
2108,4.2415313,-1.1486558,-0.53756142,-0.21418463
2109,4.2435313,-1.1352167,-0.52351153,-0.19952387
2110,4.2455313,-1.1101712,-0.50274211,-0.18058704
2111,4.2475313,-1.0820714,-0.48197266,-0.16165021
2112,4.2495313,-1.070465,-0.47525316,-0.1549307
2113,4.2515314,-1.043587,-0.45875978,-0.13599387
2114,4.2535323,-1.0179306,-0.45387289,-0.12194397
2115,4.2555332,-1.0075458,-0.44532076,-0.11705706
2116,4.2575341,-0.98372209,-0.44165558,-0.10728321
2117,4.259535,-0.95867664,-0.43432519,-0.098731093
2118,4.2615359,-0.94768107,-0.43249258,-0.095065907
2119,4.2635358,-0.92324644,-0.43310347,-0.090178981
2120,4.2655358,-0.8957575,-0.43799037,-0.084070332
2121,4.2675358,-0.88048589,-0.43860126,-0.079183407
2122,4.2695357,-0.85299695,-0.44593164,-0.079183407
2123,4.2715357,-0.82428628,-0.45265114,-0.074907348
2124,4.273535,-0.80962551,-0.45692721,-0.076739945
2125,4.2755341,-0.77724969,-0.46609017,-0.075518213
2126,4.2775341,-0.74548465,-0.47769663,-0.077961676
2127,4.2795341,-0.72532612,-0.48502702,-0.07735081
2128,4.2815342,-0.68806332,-0.49418998,-0.080405138
2129,4.2835342,-0.64774621,-0.50396383,-0.079183407
2130,4.2855342,-0.62880939,-0.51007247,-0.079183407
2131,4.2875343,-0.58665973,-0.51373768,-0.080405138
2132,4.2895343,-0.53840137,-0.52228981,-0.084681198
2133,4.2915343,-0.51152331,-0.52717668,-0.086513788
2134,4.2935352,-0.4620432,-0.53572881,-0.089568116
2135,4.2955352,-0.40828705,-0.5479461,-0.10422888
2136,4.2975352,-0.38201985,-0.5479461,-0.10850494
2137,4.2995352,-0.32276592,-0.54916787,-0.11217013
2138,4.3015352,-0.26656634,-0.5479461,-0.11339186
2139,4.3035352,-0.23724478,-0.54855698,-0.11339186
2140,4.3055352,-0.18043432,-0.54305923,-0.11644619
2141,4.3075352,-0.11995866,-0.5363397,-0.11950051
2142,4.3095352,-0.092469729,-0.53023106,-0.11950051
2143,4.3115351,-0.035048392,-0.51923543,-0.12194397
2144,4.3135342,0.029092457,-0.51129419,-0.12194397
2145,4.3155333,0.057803124,-0.50946164,-0.12560916
2146,4.3175324,0.11705706,-0.50701815,-0.12927435
2147,4.3195315,0.17814358,-0.4972443,-0.13049608
2148,4.3215315,0.20807597,-0.48808134,-0.12622003
2149,4.3235313,0.27282768,-0.47036624,-0.112781
2150,4.3255313,0.33391422,-0.45020768,-0.097509362
2151,4.3275314,0.35957056,-0.43860126,-0.088346384
2152,4.3295314,0.41943535,-0.41355577,-0.068798698
2153,4.3315314,0.47563496,-0.38912117,-0.045585819
2154,4.3335323,0.50190216,-0.37812558,-0.03153592
2155,4.3355332,0.55199313,-0.3549127,-0.010155635
2156,4.3375333,0.60269493,-0.33964106,0.010002919
2157,4.3395333,0.62774038,-0.33353242,0.022831088
2158,4.3415341,0.67844224,-0.31948254,0.04604397
2159,4.343534,0.73158747,-0.30360001,0.075976364
2160,4.345534,0.75724381,-0.29565877,0.089415401
2161,4.347534,0.80794567,-0.27855456,0.1193478
2162,4.3495339,0.85803658,-0.26511553,0.14805846
2163,4.3515339,0.8824712,-0.25961772,0.16088663
2164,4.353533,0.93072957,-0.25350907,0.18959729
2165,4.3555321,0.95516419,-0.25167647,0.2036472
2166,4.3575313,1.0022008,-0.24984388,0.22869268
2167,4.3595304,1.0449613,-0.24740042,0.2580142
2168,4.3615296,1.0663416,-0.25106561,0.26962066
2169,4.3635297,1.1042153,-0.25900686,0.29466611
2170,4.3655297,1.1396455,-0.27122417,0.31665727
2171,4.3675297,1.1530845,-0.2828306,0.32948545
2172,4.3695298,1.1805735,-0.3109304,0.35208747
2173,4.3715298,1.2068406,-0.33536503,0.37530035
2174,4.3735307,1.2202797,-0.35308012,0.38629591
2175,4.3755315,1.2447143,-0.3830125,0.40950879
2176,4.3775324,1.264262,-0.42088616,0.43394339
2177,4.3795333,1.2728142,-0.43982297,0.44310638
2178,4.3815333,1.286864,-0.47952923,0.46509752
2179,4.3835332,1.3009139,-0.52290064,0.48281261
2180,4.3855332,1.3021356,-0.54367006,0.49441907
2181,4.3875331,1.3106878,-0.59315014,0.5078581
2182,4.3895331,1.3125204,-0.63835418,0.52557319
2183,4.3915331,1.3119094,-0.65973449,0.53229272
2184,4.3935323,1.3045791,-0.70371675,0.54206657
2185,4.3955314,1.2917509,-0.74647731,0.55000782
2186,4.3975305,1.2856423,-0.76602501,0.55367297
2187,4.3995296,1.2691489,-0.80634212,0.55611646
2188,4.401528,1.2465469,-0.83505279,0.55733818
2189,4.403528,1.2379948,-0.85032439,0.55306214
2190,4.4055281,1.2153927,-0.87109387,0.54389912
2191,4.4075281,1.1891255,-0.88147855,0.52862751
2192,4.4095281,1.1793517,-0.87720251,0.51641023
2193,4.4115282,1.1530845,-0.86315256,0.49136472
2194,4.4135291,1.1335368,-0.83199847,0.45593455
2195,4.41553,1.123763,-0.81306165,0.4376086
2196,4.4175309,1.105437,-0.76785761,0.39545888
2197,4.4195317,1.0883328,-0.72876221,0.35269833
2198,4.4215325,1.0810024,-0.71226889,0.32887459
2199,4.4235325,1.0706177,-0.69516462,0.28122708
2200,4.4255324,1.0651199,-0.70799279,0.23724478
2201,4.4275324,1.0657308,-0.72876221,0.21219932
2202,4.4295324,1.0626764,-0.79534656,0.16394097
2203,4.4315323,1.0535135,-0.89858276,0.11690433
2204,4.4335314,1.0504591,-0.9633345,0.090637133
2205,4.4355315,1.0321332,-1.1032226,0.045433104
2206,4.4375315,1.0028117,-1.2614367,0.001450805
2207,4.4395315,0.98509657,-1.3390167,-0.015042556
2208,4.4415316,0.93989253,-1.5027285,-0.051694471
2209,4.4435324,0.88430381,-1.6584991,-0.087735519
2210,4.4455325,0.85376054,-1.736079,-0.10361802
2211,4.4475325,0.78534365,-1.8845193,-0.13171782
2212,4.4495325,0.7053203,-2.0097466,-0.16103935
2213,4.4515325,0.66317058,-2.0653355,-0.17570011
2214,4.4535333,0.57887119,-2.1545217,-0.20563251
2215,4.4555341,0.48357621,-2.2137756,-0.23189972
2216,4.457535,0.43715045,-2.230269,-0.24717134
2217,4.4595359,0.34246632,-2.2351558,-0.27221683
2218,4.4615366,0.24656048,-2.2015584,-0.29420796
2219,4.4635366,0.19891299,-2.1691825,-0.30337095
2220,4.4655366,0.11217013,-2.081218,-0.3198643
2221,4.4675365,0.032757647,-1.9566014,-0.33208162
2222,4.4695365,-0.0045051314,-1.8796324,-0.33819026
2223,4.4715365,-0.071700305,-1.7012597,-0.34063372
2224,4.4735356,-0.10041098,-1.6059648,-0.34124461
2225,4.4755347,-0.14928019,-1.3982705,-0.34246632
2226,4.4775346,-0.1914299,-1.1722504,-0.339412
2227,4.4795346,-0.22258402,-0.9419542,-0.339412
2228,4.4815346,-0.23602305,-0.82833326,-0.33513594
2229,4.4835347,-0.26106852,-0.61330873,-0.33513594
2230,4.4855347,-0.28733575,-0.42455134,-0.33330336
2231,4.4875347,-0.29772046,-0.33964106,-0.33574682
2232,4.4895348,-0.32276592,-0.19181168,-0.34002286
2233,4.4915348,-0.33559409,-0.058643065,-0.34490979
2234,4.4935357,-0.35575265,-0.00061086525,-0.35407278
2235,4.4955357,-0.37530035,0.10506883,-0.36812267
2236,4.4975357,-0.38201985,0.15271631,-0.37606391
2237,4.4995356,-0.39118284,0.23884831,-0.39316815
2238,4.5015356,-0.39545888,0.30970868,-0.41271582
2239,4.5035346,-0.39423716,0.34452799,-0.42371142
2240,4.5055346,-0.38140899,0.3921755,-0.45058948
2241,4.5075345,-0.35086572,0.42332962,-0.4817436
2242,4.5095345,-0.33315063,0.43310347,-0.4976261
2243,4.5115345,-0.28550315,0.43493605,-0.53488886
2244,4.5135336,-0.22502749,0.41477749,-0.57581687
2245,4.5155328,-0.1877647,0.39767328,-0.59475368
2246,4.5175319,-0.099189244,0.34574974,-0.6332382
2247,4.519531,-0.0020616702,0.26206118,-0.67477703
2248,4.521531,0.048640147,0.21502456,-0.69371384
2249,4.523531,0.15981762,0.1020145,-0.73097664
2250,4.525531,0.27710375,-0.020158553,-0.76762855
2251,4.527531,0.33819026,-0.082466811,-0.78351104
2252,4.5295311,0.46280679,-0.20525073,-0.80672389
2253,4.5315311,0.59414279,-0.30543262,-0.82199556
2254,4.533532,0.66194886,-0.3481932,-0.82749331
2255,4.5355329,0.79572833,-0.40989059,-0.82871509
2256,4.5375329,0.92889696,-0.44409904,-0.81894124
2257,4.5395328,0.99609214,-0.45387289,-0.81344342
2258,4.5415328,1.1262064,-0.45631635,-0.79389572
2259,4.5435328,1.2496012,-0.44409904,-0.76579595
2260,4.5455328,1.3125204,-0.43004912,-0.75174606
2261,4.5475327,1.4218652,-0.38423425,-0.71509415
2262,4.5495327,1.5202146,-0.31398472,-0.67538786
2263,4.5515327,1.5666403,-0.27305678,-0.6527859
2264,4.5535319,1.6466637,-0.17287487,-0.60880357
2265,4.555531,1.7126371,-0.06169739,-0.56115609
2266,4.5575301,1.7395152,-0.0012217305,-0.53977579
2267,4.5595293,1.7865517,0.12339478,-0.49579349
2268,4.5615293,1.8183168,0.25106561,-0.44386995
2269,4.5635297,1.8305341,0.31581733,-0.41699189
2270,4.5655298,1.8482492,0.43921211,-0.36873353
2271,4.5675298,1.8506926,0.55894172,-0.31742084
2272,4.5695298,1.8494709,0.61758476,-0.28932106
2273,4.5715299,1.8360318,0.74097955,-0.23067799
2274,4.5735308,1.8146516,0.86132002,-0.16592628
2275,4.5755316,1.8012125,0.91813046,-0.13843733
2276,4.5775325,1.7657824,1.0134255,-0.085292056
2277,4.5795334,1.7218001,1.0897835,-0.03153592
2278,4.5815334,1.6955328,1.1203269,-0.0095447693
2279,4.5835334,1.6375006,1.1582005,0.036880989
2280,4.5855334,1.5727489,1.1667526,0.07658723
2281,4.5875334,1.536097,1.1594223,0.093691453
2282,4.5895333,1.4615715,1.1307116,0.12606731
2283,4.5915333,1.3784938,1.0769554,0.145615
2284,4.5935324,1.3357332,1.0415252,0.15294538
2285,4.5955315,1.2392166,0.95661497,0.15722144
2286,4.5975306,1.1897364,0.90469146,0.15477799
2287,4.5995299,1.0840567,0.78740531,0.14317155
2288,4.601529,0.97349012,0.64201939,0.1193478
2289,4.603529,0.86475611,0.47219884,0.08086329
2290,4.605529,0.8085565,0.39156461,0.050930891
2291,4.607529,0.70287681,0.23823744,-0.02359467
2292,4.609529,0.60574925,0.094684117,-0.10789407
2293,4.6115287,0.5648213,0.030543262,-0.15004377
2294,4.6135301,0.49029571,-0.075136423,-0.23678663
2295,4.615531,0.44386995,-0.12767084,-0.31558827
2296,4.6175319,0.43043092,-0.1301143,-0.35224018
2297,4.6195328,0.42187881,-0.10873401,-0.41577014
2298,4.6215328,0.43287438,-0.047647487,-0.46586111
2299,4.6235328,0.44509169,-0.0067195175,-0.48907399
2300,4.6255327,0.47624582,0.092240654,-0.50556737
2301,4.6275327,0.49640438,0.14844026,-0.50862169
2302,4.6295323,0.54771703,0.2669481,-0.50190216
2303,4.6315323,0.60208404,0.38728857,-0.47502407
2304,4.6335314,0.63201648,0.44409904,-0.4554764
2305,4.6355314,0.69860077,0.55466563,-0.40599632
2306,4.6375314,0.76518506,0.65301496,-0.34307718
2307,4.6395314,0.80061525,0.69516462,-0.30703613
2308,4.6415315,0.8671996,0.76480329,-0.22579107
2309,4.6435315,0.92889696,0.81611598,-0.13782647
2310,4.6455315,0.96188366,0.83566368,-0.093844175
2311,4.6475315,1.0156398,0.86620694,0.011224649
2312,4.6495316,1.0590112,0.87842423,0.12484559
2313,4.6515316,1.0761155,0.88086766,0.18532124
2314,4.6535325,1.1060479,0.88758719,0.29955304
2315,4.6555333,1.1194869,0.88880891,0.41378483
2316,4.6575342,1.1249847,0.88880891,0.46265405
2317,4.6595351,1.1200978,0.88758719,0.56344682
2318,4.6615359,1.1109349,0.87598073,0.65324402
2319,4.6635356,1.1066587,0.86926126,0.69295025
2320,4.6655358,1.0852785,0.83810711,0.76625407
2321,4.6675357,1.0638982,0.8014552,0.8297841
2322,4.6695357,1.0486265,0.77702057,0.85727304
2323,4.6715361,1.0186942,0.71715581,0.9018662
2324,4.6735345,0.98754001,0.64996064,0.92996597
2325,4.6755336,0.9704358,0.60414571,0.93546379
2326,4.6775335,0.9313404,0.50640726,0.9366855
2327,4.6795335,0.89041245,0.39339721,0.92019212
2328,4.6815335,0.87147564,0.32559118,0.90247703
2329,4.6835341,0.83482373,0.17959438,0.86215991
2330,4.6855341,0.80428046,0.01038471,0.80718207
2331,4.6875341,0.79328489,-0.079412483,0.77175188
2332,4.6895345,0.7731263,-0.27427849,0.69172853
2333,4.6915345,0.7596873,-0.48014009,0.59399009
2334,4.6935354,0.75480038,-0.58765239,0.5408448
2335,4.6955355,0.74563742,-0.80939645,0.42416954
2336,4.6975355,0.74869174,-1.0219775,0.29405525
2337,4.6995355,0.75113517,-1.1270463,0.22747095
2338,4.7015355,0.75907642,-1.3274102,0.089415401
2339,4.7035354,0.77495891,-1.505172,-0.046196684
2340,4.7055354,0.78290015,-1.5894713,-0.11461359
2341,4.7075354,0.80611306,-1.7299703,-0.24717134
2342,4.7095353,0.83238024,-1.844813,-0.37789652
2343,4.7115353,0.85009533,-1.8894062,-0.44081563
2344,4.7135344,0.88674724,-1.9474384,-0.5587126
2345,4.7155335,0.93256217,-1.967597,-0.67233354
2346,4.7175327,0.95516419,-1.96271,-0.72853315
2347,4.7195319,1.0003682,-1.9138408,-0.83238024
2348,4.7215319,1.0504591,-1.8124372,-0.92339915
2349,4.7235322,1.0755047,-1.749518,-0.96677059
2350,4.7255321,1.1231521,-1.5803084,-1.0382419
2351,4.7275322,1.1720214,-1.3677273,-1.0871111
2352,4.7295322,1.1927907,-1.2461652,-1.1048262
2353,4.731532,1.2337188,-0.98043871,-1.1274282
2354,4.7335329,1.2636511,-0.68661255,-1.1341476
2355,4.7355337,1.2770902,-0.53084189,-1.1310934
2356,4.7375337,1.2929727,-0.20952678,-1.1200978
2357,4.7395337,1.2984704,0.12217305,-1.1023827
2358,4.7415337,1.2972487,0.28344148,-1.0944414
2359,4.7435333,1.2795336,0.60353488,-1.0748937
2360,4.7455333,1.2569315,0.89736104,-1.0620656
2361,4.7475332,1.2428817,1.0311406,-1.0608438
