,gyr_time,gyrX,gyrY,gyrZ
0,0.079281648,0.67111659,1.433846,1.2202604
1,0.079403718,0.67111659,1.433846,1.2202604
2,0.079525788,0.67111659,1.4306501,1.2101405
3,0.079647859,0.67111659,1.4306501,1.2101405
4,0.081631501,0.66951871,1.4183996,1.1952267
5,0.081875642,0.66951871,1.4183996,1.1952267
6,0.081967195,0.66951871,1.4183996,1.1952267
7,0.082089265,0.66951871,1.4183996,1.1952267
8,0.084072908,0.6599313,1.4024206,1.186172
9,0.084194978,0.6599313,1.4024206,1.186172
10,0.084317048,0.6599313,1.4024206,1.186172
11,0.085537751,0.65780079,1.3800501,1.1808456
12,0.087521394,0.64874607,1.3539511,1.1792477
13,0.089505036,0.64128917,1.3241237,1.1851068
14,0.091519197,0.63063657,1.2937636,1.196292
15,0.093533357,0.6263755,1.2548815,1.2128036
16,0.095516999,0.61891866,1.2181299,1.2325109
17,0.097500642,0.6103965,1.1829761,1.2564794
18,0.099514802,0.61359233,1.1531488,1.2868395
19,0.10152896,0.6103965,1.133974,1.3124058
20,0.10360416,0.61678815,1.1217234,1.33957
21,0.10552677,0.61945128,1.113734,1.361408
22,0.10754093,0.62957132,1.1153319,1.387507
23,0.10952457,0.63329971,1.1169298,1.4104102
24,0.11159976,0.6359629,1.1158645,1.4365091
25,0.11352237,0.63809341,1.1147993,1.4556838
26,0.1154755,0.63649553,1.1142666,1.4759239
27,0.11745914,0.63276708,1.1121361,1.4945661
28,0.11956485,0.62264705,1.1025487,1.5137408
29,0.12145694,0.6130597,1.0929613,1.5313177
30,0.12344058,0.5997439,1.0769824,1.5515577
31,0.12545474,0.58429754,1.0604708,1.5717977
32,0.12752994,0.56405753,1.0375676,1.5899072
33,0.12948306,0.54488277,1.0135992,1.6080167
34,0.13146671,0.52783853,0.98750013,1.6261262
35,0.13345035,0.50493532,0.95607483,1.6506273
36,0.13552554,0.48309743,0.9219864,1.6724652
37,0.13747867,0.4596616,0.88949585,1.6985642
38,0.13949283,0.44368264,0.85966843,1.7251958
39,0.14150699,0.42184472,0.83037364,1.7454358
40,0.14349063,0.41225734,0.8000136,1.7747306
41,0.14547428,0.39947417,0.77125144,1.7928401
42,0.14748844,0.39894155,0.73769563,1.8130801
43,0.1495026,0.40693101,0.70627034,1.8290591
44,0.15148624,0.41172472,0.67218184,1.8407769
45,0.1535004,0.43249738,0.62797338,1.8461033
46,0.15548404,0.45486793,0.58269966,1.8445054
47,0.15746768,0.48149952,0.52570802,1.8333201
48,0.15948184,0.50493532,0.46392268,1.8168086
49,0.16152652,0.53955644,0.39361522,1.7907095
50,0.16347965,0.57790595,0.31585091,1.7555559
51,0.16546329,0.6103965,0.23489082,1.7145431
52,0.16747745,0.64555025,0.14753912,1.6682042
53,0.16949161,0.68230188,0.051132694,1.6138756
54,0.17150577,0.71745563,-0.042077947,1.5542208
55,0.17345889,0.74728304,-0.13156016,1.4913702
56,0.17547305,0.7771104,-0.21997711,1.4274544
57,0.1774567,0.79575253,-0.29987195,1.3582122
58,0.17944034,0.80693781,-0.37230992,1.2980248
59,0.18148502,0.81386203,-0.44421527,1.2442288
60,0.18356021,0.81599259,-0.51239222,1.1957593
61,0.1854523,0.82185155,-0.58483016,1.1547467
62,0.18743595,0.82877576,-0.65780079,1.1195929
63,0.18941959,0.83942837,-0.72651035,1.0908308
64,0.19149478,0.85593998,-0.78989357,1.0583402
65,0.19341739,0.87884319,-0.8495484,1.0258497
66,0.19540103,0.90068108,-0.91133374,0.9869675
67,0.19738468,0.92571479,-0.97951066,0.94595486
68,0.19945987,0.95927066,-1.0588728,0.90334427
69,0.201413,1.0018812,-1.158475,0.85274422
70,0.20339664,1.0572749,-1.27885,0.80054623
71,0.20538028,1.1126688,-1.4114754,0.73929352
72,0.20745548,1.1744541,-1.5632756,0.67537767
73,0.2094086,1.2335763,-1.7001621,0.63010395
74,0.21142276,1.2394352,-1.7097495,0.59122175
75,0.21337589,1.1941614,-1.5435683,0.54648066
76,0.21545108,1.139833,-1.2852416,0.49534798
77,0.21737369,1.0881677,-0.99335909,0.43516052
78,0.21938785,1.0391655,-0.68816084,0.36698359
79,0.22140201,0.984837,-0.3685815,0.29401299
80,0.2234772,0.93104112,-0.049534798,0.2066613
81,0.22536929,0.87191898,0.25246766,0.12303805
82,0.22738345,0.8133294,0.5320996,0.03834952
83,0.22939762,0.75473988,0.79468727,-0.035153728
84,0.23147281,0.69987875,1.0349044,-0.10439592
85,0.2333649,0.65886605,1.2389026,-0.16671389
86,0.23534854,0.63223445,1.3944311,-0.22104238
87,0.23733218,0.61998391,1.4945661,-0.26312032
88,0.23940738,0.62690812,1.5494272,-0.29720879
89,0.2413605,0.65247446,1.5632756,-0.31638354
90,0.24331363,0.69242191,1.5265239,-0.31798145
91,0.24529727,0.7456851,1.4450313,-0.30732879
92,0.24737247,0.80906838,1.3246564,-0.28495824
93,0.24929508,0.87138635,1.1893678,-0.25300032
94,0.25130924,0.93370432,1.0498182,-0.21198763
95,0.2533234,0.99016333,0.92464954,-0.16458336
96,0.25539859,1.0333065,0.82291681,-0.10599381
97,0.2573212,1.067395,0.75154406,-0.043675844
98,0.25930484,1.0961571,0.70840085,0.023435818
99,0.26134952,1.1089402,0.68336713,0.095341168
100,0.26342471,1.1190603,0.6780408,0.16831179
101,0.2653168,1.1286477,0.68176925,0.2412824
102,0.26730045,1.1329087,0.69774824,0.31318775
103,0.26931461,1.1403656,0.72651035,0.38349521
104,0.2713898,1.1462245,0.75420725,0.44687843
105,0.27331241,1.1547467,0.79042625,0.51292485
106,0.27532657,1.1653993,0.81918836,0.57950389
107,0.27734073,1.1739215,0.84102631,0.64288712
108,0.27941592,1.1835088,0.85593998,0.7094661
109,0.28133853,1.1883025,0.8543421,0.77924097
110,0.28329166,1.1925635,0.83676523,0.85860318
111,0.28530582,1.1899004,0.81439465,0.93849796
112,0.28738101,1.1835088,0.78509992,1.0183928
113,0.2892731,1.1749867,0.75207669,1.1009508
114,0.29125675,1.1622036,0.72437984,1.1845741
115,0.29327091,1.1467572,0.70147663,1.2676647
116,0.2953461,1.1307782,0.68230188,1.3491575
117,0.29726871,1.1100056,0.6673882,1.4221281
118,0.29925235,1.0892329,0.66312712,1.4892397
119,0.30126651,1.0721886,0.65353972,1.5520903
120,0.30334171,1.051416,0.64555025,1.6026903
121,0.3052338,1.0333065,0.63329971,1.6522251
122,0.30721744,1.0135992,0.61891866,1.6943032
123,0.30920108,0.99495703,0.59548283,1.7257284
124,0.31127628,0.97258645,0.56618804,1.7491642
125,0.31319888,0.9534117,0.53529537,1.7651432
126,0.31521304,0.92944324,0.50546801,1.7757958
127,0.3172272,0.9086706,0.47564057,1.7821875
128,0.3193024,0.88310421,0.45646581,1.7811222
129,0.32125553,0.86446208,0.44208476,1.7816548
130,0.32320865,0.84049368,0.43249738,1.7704695
131,0.32522281,0.81705785,0.4314321,1.7603495
132,0.327298,0.79095888,0.42930159,1.7449032
133,0.32925113,0.7685883,0.43036684,1.726261
134,0.33120426,0.7456851,0.43196473,1.707619
135,0.3331879,0.71958613,0.44101948,1.6836505
136,0.33526309,0.68975872,0.45486793,1.6591494
137,0.3371857,0.65780079,0.46605319,1.6357136
138,0.33916934,0.62477762,0.4777711,1.6080167
139,0.34121402,0.59281969,0.49055427,1.582983
140,0.34328922,0.55979645,0.50813115,1.5515577
141,0.34518131,0.52304482,0.52837116,1.5286545
142,0.34716495,0.4777711,0.55233961,1.5025555
143,0.34914859,0.43729106,0.57417756,1.4759239
144,0.35122379,0.39734364,0.59654808,1.4519554
145,0.35314639,0.35153726,0.61252707,1.4290522
146,0.35516055,0.30040458,0.62104917,1.4045511
147,0.35717471,0.25513083,0.62211442,1.3827133
148,0.35924991,0.20879184,0.61625546,1.3587449
149,0.36117252,0.165116,0.60347229,1.3289174
150,0.36312564,0.11558119,0.58642811,1.3012205
151,0.3651398,0.06178534,0.572047,1.2623384
152,0.367215,0.010652645,0.56139439,1.2229236
153,0.36910709,-0.050067428,0.56086171,1.1840415
154,0.37109073,-0.10759171,0.55926383,1.1456919
155,0.37307437,-0.16298546,0.56565541,1.107875
156,0.37514957,-0.22210763,0.57311225,1.0748519
157,0.37707218,-0.27803403,0.57471019,1.0439591
158,0.37905582,-0.33076462,0.56459016,1.0199907
159,0.38106998,-0.38722363,0.53795856,0.99868542
160,0.38314517,-0.44208476,0.5091964,0.97791278
161,0.38506778,-0.49854377,0.47723848,0.9582054
162,0.38705142,-0.5587312,0.43729106,0.94275904
163,0.38903507,-0.62371236,0.39361522,0.92358428
164,0.39111026,-0.69668293,0.33928671,0.90440953
165,0.39303287,-0.77125144,0.28282771,0.88470215
166,0.39501651,-0.85327685,0.2247708,0.85913581
167,0.39703067,-0.94169378,0.16405073,0.82824314
168,0.39910587,-1.0327739,0.098536961,0.79202414
169,0.40108951,-1.1233214,0.03089267,0.74941355
170,0.40304263,-1.2117383,-0.03834952,0.69828087
171,0.40502628,-1.2969595,-0.1107875,0.64821345
172,0.40710147,-1.3736585,-0.1768339,0.59068912
173,0.4090546,-1.4444987,-0.24181503,0.52837116
174,0.41106876,-1.5014902,-0.29880667,0.46605319
175,0.41302188,-1.551025,-0.35153726,0.39681101
176,0.41509708,-1.5909724,-0.39734364,0.33076462
177,0.4170502,-1.6197346,-0.43462789,0.26738137
178,0.41903384,-1.635181,-0.46072689,0.1949434
179,0.421048,-1.6468989,-0.47244477,0.128897
180,0.4231232,-1.6463662,-0.47564057,0.062850602
181,0.42504581,-1.6389093,-0.46552056,-0.0053263223
182,0.42705997,-1.6250609,-0.44581318,-0.073503248
183,0.42904361,-1.6053536,-0.41758367,-0.14168017
184,0.43111881,-1.5803198,-0.38029942,-0.21252026
185,0.4330109,-1.555286,-0.33449304,-0.28336033
186,0.43499454,-1.5249261,-0.28176245,-0.35792887
187,0.43697818,-1.4892397,-0.22104238,-0.43516052
188,0.43905338,-1.4530207,-0.14807177,-0.51665324
189,0.44103702,-1.4162691,-0.070307456,-0.59761333
190,0.44299014,-1.3763217,0.014913702,-0.67591029
191,0.44497379,-1.3358417,0.10599381,-0.76006621
192,0.44704898,-1.2926984,0.21145499,-0.84262419
193,0.44897159,-1.2522184,0.32437304,-0.92891061
194,0.45098575,-1.2069446,0.44900897,-1.0120013
195,0.45299991,-1.1664646,0.58909124,-1.0950918
196,0.45507511,-1.1286477,0.73077142,-1.1749867
197,0.4569672,-1.0908308,0.88416952,-1.2516857
198,0.45895084,-1.0588728,1.0471549,-1.3257216
199,0.46099552,-1.0306433,1.2229236,-1.4008228
200,0.46307071,-1.0077401,1.4008228,-1.4695324
201,0.4649628,-0.9896307,1.5835156,-1.5371766
202,0.46694644,-0.97897804,1.7640779,-1.6016251
203,0.46893009,-0.97471696,1.9510318,-1.6623452
204,0.47100528,-0.97578222,2.1363878,-1.7257284
205,0.47292789,-0.97738016,2.3164175,-1.7837853
206,0.47491153,-0.99442434,2.4943168,-1.839179
207,0.47689517,-1.010936,2.6604979,-1.892975
208,0.47897037,-1.0349044,2.8192225,-1.9473034
209,0.48095401,-1.0604708,2.9699574,-1.9952403
210,0.48290714,-1.0833739,3.1068437,-2.0399814
211,0.48489078,-1.1073424,3.2165661,-2.082592
212,0.48696597,-1.1275824,3.2911346,-2.1241374
213,0.48888858,-1.1424961,3.333745,-2.1656826
214,0.49090274,-1.1563445,3.3502567,-2.1992385
215,0.49288638,-1.1616709,3.3358757,-2.2264028
216,0.49496158,-1.1627362,3.2847428,-2.2540996
217,0.4969147,-1.1563445,3.1909997,-2.2690134
218,0.49892887,-1.1488878,3.0466564,-2.2812638
219,0.50094302,-1.1243867,2.8527782,-2.2897859
220,0.50292667,-1.0902982,2.6093652,-2.2860575
221,0.50491031,-1.0482203,2.3318639,-2.273807
222,0.50692447,-0.99708754,2.0314593,-2.2594259
223,0.50893863,-0.94435692,1.7353158,-2.2429142
224,0.51092227,-0.88736528,1.4514228,-2.2237396
225,0.51293643,-0.83676523,1.1973573,-2.2040322
226,0.51488956,-0.79095888,0.96939063,-2.1827269
227,0.5168732,-0.74994618,0.77391464,-2.1683457
228,0.51891788,-0.70627034,0.60666811,-2.1534321
229,0.52090152,-0.66898608,0.47297743,-2.150769
230,0.52288516,-0.64022392,0.37497309,-2.1481059
231,0.52486881,-0.61945128,0.31372038,-2.1528995
232,0.52688297,-0.60507023,0.27057716,-2.1619542
233,0.52889713,-0.60080916,0.25779399,-2.1720743
234,0.53085025,-0.59708071,0.26205507,-2.189651
235,0.53283389,-0.60560286,0.27963191,-2.2056301
236,0.53484805,-0.6178534,0.31105721,-2.2322617
237,0.53686221,-0.63383234,0.35633096,-2.2530344
238,0.53881534,-0.64981133,0.41385525,-2.2812638
239,0.5408295,-0.66152924,0.4857606,-2.3094933
240,0.54281314,-0.67484504,0.57577544,-2.338788
241,0.5448273,-0.68496507,0.67591029,-2.3702135
242,0.54681094,-0.69082397,0.79894835,-2.4011061
243,0.54879459,-0.69508505,0.93423694,-2.433064
244,0.55080875,-0.6988135,1.0908308,-2.4724789
245,0.55279239,-0.69987875,1.2602079,-2.5108283
246,0.55477603,-0.70573771,1.4359765,-2.5571673
247,0.55679019,-0.716923,1.613343,-2.604039
248,0.55877384,-0.73290193,1.7864485,-2.6578348
249,0.560788,-0.753142,1.9504992,-2.711098
250,0.56277164,-0.7819041,2.0863204,-2.7702203
251,0.5647858,-0.81545997,2.1779332,-2.8261466
252,0.56676944,-0.85807049,2.21575,-2.8911278
253,0.56875308,-0.90068108,2.1821942,-2.9518478
254,0.57073673,-0.93956327,2.07407,-3.0072415
255,0.57275089,-0.97684753,1.8828549,-3.0562437
256,0.57473453,-1.0077401,1.6085494,-3.1015174
257,0.57674869,-1.0322412,1.2596753,-3.1366713
258,0.57876285,-1.0498182,0.83836311,-3.1627703
259,0.58077701,-1.0647318,0.35313517,-3.184608
260,0.58276065,-1.0769824,-0.175236,-3.1968586
261,0.58474429,-1.0855045,-0.73183668,-3.2037828
262,0.58675845,-1.0918961,-1.3017532,-3.2016523
263,0.58877262,-1.0887003,-1.8658108,-3.1941955
264,0.59075626,-1.0807108,-2.4016387,-3.1867387
265,0.59277042,-1.0636666,-2.8873992,-3.1819448
266,0.59475406,-1.0354371,-3.2953956,-3.1744881
267,0.5967377,-1.0013486,-3.593137,-3.1808796
268,0.59875186,-0.97098857,-3.7635794,-3.1856732
269,0.60079654,-0.94222641,-3.8013961,-3.1904671
270,0.60274966,-0.9219864,-3.7103162,-3.1973913
271,0.60473331,-0.89801794,-3.5100465,-3.2048481
272,0.60674747,-0.87404948,-3.2240229,-3.2117724
273,0.60876163,-0.85167891,-2.8783445,-3.2208271
274,0.61074527,-0.82717782,-2.4980452,-3.2250881
275,0.61272891,-0.80693781,-2.1209416,-3.2304144
276,0.61474307,-0.80161148,-1.7528926,-3.2277513
277,0.61675723,-0.79735047,-1.4146712,-3.2165661
278,0.61874088,-0.8026768,-1.1233214,-3.192065
279,0.62075504,-0.81759048,-0.87884319,-3.161705
280,0.62283023,-0.84209156,-0.69029135,-3.1222901
281,0.62475284,-0.87617999,-0.54967648,-3.0796795
282,0.626767,-0.91825795,-0.44900897,-3.0317426
283,0.62875064,-0.97471696,-0.38242993,-2.9763489
284,0.63082584,-1.0359697,-0.34727621,-2.9209552
285,0.63271793,-1.1009508,-0.34461305,-2.8655615
286,0.63470157,-1.1685951,-0.37444046,-2.8091023
287,0.63668521,-1.2367721,-0.44048685,-2.7542412
288,0.63876041,-1.2996227,-0.54701328,-2.6961844
289,0.64074405,-1.3635385,-0.680704,-2.6365294
290,0.64269718,-1.4152038,-0.84102631,-2.5758095
291,0.64468082,-1.4626081,-1.0226538,-2.5182853
292,0.64675601,-1.5020229,-1.2186625,-2.4596956
293,0.64867862,-1.5334482,-1.4152038,-2.4021714
294,0.65069278,-1.5531555,-1.6112125,-2.3499734
295,0.65270694,-1.5638082,-1.7955033,-2.2919164
296,0.65478214,-1.5600798,-1.9590213,-2.2466428
297,0.65667423,-1.546764,-2.1038973,-2.2024343
298,0.65868839,-1.5174692,-2.21575,-2.1528995
299,0.66070255,-1.4796523,-2.3004386,-2.108691
300,0.66277774,-1.4349113,-2.3478429,-2.0676782
301,0.66466983,-1.3843112,-2.3691483,-2.0240026
302,0.66668399,-1.3305153,-2.3659523,-1.9851203
303,0.66869815,-1.2724584,-2.3382554,-1.9393139
304,0.67077335,-1.2170646,-2.2967103,-1.8993665
305,0.67266544,-1.1558119,-2.2514365,-1.8615496
306,0.67464908,-1.0998856,-2.2034996,-1.8253306
307,0.67666324,-1.0402308,-2.1539648,-1.7933728
308,0.67873844,-0.98750013,-2.1028321,-1.7592843
309,0.68069156,-0.93210638,-2.0602214,-1.7315874
310,0.68264469,-0.87990844,-2.0133498,-1.7038904
311,0.68465885,-0.82557994,-1.9675435,-1.6777915
312,0.68673404,-0.77231675,-1.9265307,-1.6516925
313,0.68868716,-0.71798825,-1.8919097,-1.6266588
314,0.69064029,-0.66632295,-1.8599517,-1.5994946
315,0.69262393,-0.61146182,-1.8301244,-1.568602
316,0.69469913,-0.56405753,-1.8061559,-1.5350461
317,0.69665225,-0.51771855,-1.7853832,-1.4950987
318,0.69866641,-0.4777711,-1.7672738,-1.4551512
319,0.70065006,-0.43675843,-1.75236,-1.4082797
320,0.7026337,-0.39787626,-1.7326527,-1.351288
321,0.70464786,-0.36165729,-1.7134778,-1.2921658
322,0.70666202,-0.33182988,-1.6985642,-1.2293152
323,0.70867618,-0.29987195,-1.6761936,-1.160073
324,0.71065982,-0.27217507,-1.6623452,-1.087635
325,0.71267398,-0.24980451,-1.6511599,-1.0120013
326,0.71462711,-0.23062976,-1.6479641,-0.94169378
327,0.71661075,-0.21358553,-1.6506273,-0.86872315
328,0.71862491,-0.19760656,-1.6666062,-0.79308939
329,0.72063907,-0.18908444,-1.6974989,-0.71479243
330,0.72262271,-0.18429075,-1.7363811,-0.6311692
331,0.72460636,-0.17789917,-1.7694043,-0.53902382
332,0.72662052,-0.17310548,-1.8050907,-0.4415521
333,0.72863468,-0.17417073,-1.8397117,-0.33822146
334,0.7305878,-0.17204021,-1.8817897,-0.22903186
335,0.73257144,-0.17097494,-1.9148128,-0.11345066
336,0.7345856,-0.16564862,-1.9568908,0.0047936901
337,0.73656925,-0.1587244,-1.9941751,0.12623383
338,0.73855289,-0.15126756,-2.0266657,0.2428803
339,0.74059757,-0.14114754,-2.0602214,0.35792887
340,0.74267276,-0.11877698,-2.0809941,0.4676511
341,0.74456485,-0.096939065,-2.0863204,0.57471019
342,0.74654849,-0.070307456,-2.0762005,0.67750818
343,0.74856265,-0.03781689,-2.0591562,0.77551252
344,0.75063785,0.0021305289,-2.0357203,0.86552739
345,0.75256046,0.051665325,-2.0096214,0.95287907
346,0.75457462,0.10599381,-1.973935,1.0381002
347,0.75658878,0.165116,-1.9254655,1.1147993
348,0.75866397,0.22743396,-1.8599517,1.1867046
349,0.76058658,0.29614353,-1.7763284,1.2591426
350,0.76257022,0.35952675,-1.6767262,1.3283848
351,0.76458438,0.42930159,-1.5584819,1.397627
352,0.76665958,0.50014168,-1.4263891,1.4615428
353,0.76858219,0.56245965,-1.284709,1.5313177
354,0.77059635,0.62477762,-1.1281151,1.5962988
355,0.77257999,0.68389976,-0.96512961,1.6602147
356,0.77465518,0.73982614,-0.79948097,1.7241305
357,0.77657779,0.79841572,-0.63383234,1.778459
358,0.77859195,0.85008103,-0.45699844,1.8327875
359,0.78060611,0.90760529,-0.28282771,1.8833876
360,0.78268131,0.95554221,-0.098536961,1.929194
361,0.7845734,1.0098706,0.09640643,1.965413
362,0.78658756,1.0535465,0.30573091,1.9973708
363,0.78860172,1.0950918,0.52570802,2.0293288
364,0.79067691,1.1318434,0.75367463,2.0516994
365,0.792569,1.1536814,0.99442434,2.0756679
366,0.79455264,1.1781825,1.2373047,2.1001689
367,0.79653629,1.1936288,1.4807175,2.1225395
368,0.79861148,1.216532,1.7113473,2.1401162
369,0.80056461,1.2405005,1.9174761,2.1528995
370,0.80251773,1.2681973,2.0948424,2.1608889
371,0.80450137,1.3118732,2.2445123,2.1614215
372,0.80657657,1.3811153,2.3515713,2.1544974
373,0.80849918,1.4705976,2.4250746,2.1326594
374,0.81051334,1.6005598,2.4825988,2.1001689
375,0.81249698,1.7805896,2.5278726,2.0543625
376,0.81460269,2.0287962,2.5566347,1.9824572
377,0.81649478,2.334527,2.5555694,1.9068234
378,0.81850894,2.6951191,2.5257421,1.8210696
379,0.82055362,3.0727553,2.4660871,1.7289242
380,0.82250675,3.4301515,2.3712788,1.6527578
381,0.82452091,3.7108488,2.2631543,1.6074841
382,0.82650455,3.9025962,2.1731396,1.5989619
383,0.82851871,3.9952743,2.1198764,1.6239957
384,0.83053287,3.9936764,2.1081583,1.6767262
385,0.83251651,3.9137816,2.1225395,1.7528926
386,0.83453067,3.7699709,2.1582258,1.8274611
387,0.83651431,3.5819516,2.2125542,1.8919097
388,0.83858951,3.3710294,2.2658174,1.9339876
389,0.84054263,3.149987,2.3164175,1.9462382
390,0.84252628,2.9268141,2.3473103,1.9382486
391,0.84450992,2.7126958,2.3574302,1.9062908
392,0.84658512,2.501241,2.3435819,1.8631475
393,0.84850772,2.2983081,2.2961776,1.8061559
394,0.85052188,2.0948424,2.2311964,1.7347832
395,0.85250553,1.901497,2.1726069,1.6564863
396,0.85458072,1.7182716,2.1571605,1.5616777
397,0.85650333,1.5334482,2.1997712,1.4535533
398,0.85848697,1.3523532,2.321744,1.3299826
399,0.86050113,1.1813782,2.5039041,1.1883025
400,0.86260684,1.0135992,2.7419908,1.0322412
401,0.86446842,0.85966843,2.9870014,0.86819053
402,0.86645206,0.716923,3.2096417,0.69828087
403,0.8684357,0.58749336,3.3571808,0.52890378
404,0.8705109,0.46498793,3.4157705,0.37603834
405,0.8724335,0.35952675,3.3832798,0.23808661
406,0.87441715,0.26684874,3.2676988,0.13582122
407,0.87643131,0.18162759,3.0700922,0.062317971
408,0.8785065,0.092145376,2.8021781,0.027164243
409,0.88045963,0.006924219,2.4655545,0.037284255
410,0.88241275,-0.081492729,2.0836573,0.084155895
411,0.88442691,-0.16724652,1.6793894,0.16724652
412,0.88650211,-0.23489082,1.2900352,0.28389299
413,0.88842471,-0.27110979,0.95181382,0.43729106
414,0.89040836,-0.27430561,0.67111659,0.61625546
415,0.892392,-0.23648871,0.46125951,0.81279677
416,0.8944672,-0.16458336,0.31585091,1.0130665
417,0.8963898,-0.064981133,0.23435818,1.1973573
418,0.89837344,0.047936901,0.20133498,1.3619406
419,0.90041812,0.16990969,0.20026971,1.4993597
420,0.90249332,0.28655612,0.20293288,1.6154735
421,0.90438541,0.38615838,0.18748654,1.7022926
422,0.90636905,0.47137952,0.15233281,1.7694043
423,0.90838321,0.53795856,0.09267801,1.8189391
424,0.91045841,0.58909124,0.007989483,1.8492991
425,0.91238101,0.62903863,-0.088416949,1.8604844
426,0.91436466,0.65833342,-0.18695392,1.8695391
427,0.91637882,0.68176925,-0.28868666,1.8604844
428,0.91848453,0.69455242,-0.38562572,1.8471686
429,0.92040714,0.70680296,-0.47031426,1.830657
430,0.92239078,0.71212929,-0.54008907,1.8061559
431,0.92437442,0.71958613,-0.60080916,1.7795243
432,0.92644962,0.71798825,-0.644485,1.75236
433,0.92840274,0.71639037,-0.66685557,1.7241305
434,0.93038638,0.71852088,-0.68017137,1.6937705
435,0.93237003,0.71639037,-0.67058396,1.6634104
436,0.93444522,0.71159667,-0.644485,1.6378441
437,0.93639835,0.70893347,-0.60347229,1.609082
438,0.93841251,0.70307451,-0.55020911,1.5792545
439,0.94042667,0.70147663,-0.47723848,1.5531555
440,0.94241031,0.68975872,-0.4000068,1.5238608
441,0.94439395,0.67750818,-0.31318775,1.4935007
442,0.94640811,0.66419238,-0.21944448,1.4663365
443,0.94842227,0.64501762,-0.11930962,1.4343786
444,0.95040592,0.62477762,-0.013848438,1.406149
445,0.95242008,0.59867865,0.086819053,1.375789
446,0.95440372,0.572047,0.19441076,1.3539511
447,0.95638736,0.53955644,0.30146983,1.3315805
448,0.95840152,0.50227219,0.40053943,1.3118732
449,0.9604462,0.47031426,0.49428272,1.2974921
450,0.96239932,0.4314321,0.58216703,1.284709
451,0.96438297,0.39521313,0.66046399,1.2751216
452,0.96639713,0.3536678,0.72491246,1.2639363
453,0.96841129,0.31372038,0.77924097,1.2548815
454,0.97039493,0.27377295,0.82451469,1.24849
455,0.97237857,0.23329292,0.85860318,1.2394352
456,0.97439273,0.19281286,0.88416952,1.2335763
457,0.97637637,0.15606125,0.90654004,1.226652
458,0.97836002,0.11824436,0.91985583,1.220793
459,0.98037418,0.085753791,0.93210638,1.2138689
460,0.98235782,0.054861121,0.93903065,1.2117383
461,0.98434146,0.027696876,0.94808537,1.2101405
462,0.9863251,0.0042610578,0.95554221,1.2053467
463,0.98830875,-0.013315806,0.96726012,1.2037488
464,0.99032291,-0.02609898,0.98110855,1.2069446
465,0.99230655,-0.035686359,0.99921805,1.2042814
466,0.99432071,-0.038882151,1.0194581,1.2101405
467,0.99633487,-0.038882151,1.0407634,1.2096078
468,0.99841007,-0.032490566,1.0663297,1.2144015
469,1.0003327,-0.01917476,1.0929613,1.2213258
470,1.0022858,-0.006924219,1.1217234,1.2239889
471,1.0043,0.014913702,1.1563445,1.2319783
472,1.0063752,0.034621093,1.186172,1.2436962
473,1.0082672,0.056459017,1.2154667,1.2543489
474,1.0102509,0.076699041,1.2468921,1.2602079
475,1.012265,0.096939065,1.2740563,1.2729911
476,1.0143402,0.11771172,1.2948289,1.2804478
477,1.0162628,0.13795175,1.3108079,1.2926984
478,1.0182465,0.15126756,1.3225259,1.3044163
479,1.0202912,0.16831179,1.3225259,1.3219932
480,1.0223664,0.175236,1.3017532,1.3544837
481,1.0242585,0.17949706,1.28897,1.3635385
482,1.0262421,0.18429075,1.2554141,1.387507
483,1.0282257,0.18322548,1.2096078,1.412008
484,1.0303009,0.18908444,1.154214,1.4359765
485,1.0322235,0.18269286,1.0977551,1.4567492
486,1.0342377,0.18535602,1.0333065,1.4801849
487,1.0362519,0.18855181,0.95767277,1.4998924
488,1.0383271,0.19441076,0.84741789,1.5281218
489,1.0402497,0.19813919,0.80906838,1.5393071
490,1.0422028,0.20719394,0.73396719,1.5574167
491,1.044217,0.21678132,0.65726817,1.5760587
492,1.0462921,0.23648871,0.58536279,1.5931031
493,1.0482453,0.26045716,0.51345748,1.6138756
494,1.0502594,0.28495824,0.45273739,1.6309199
495,1.0522736,0.32064459,0.38935417,1.649562
496,1.0542572,0.3584615,0.33076462,1.6671388
497,1.0562714,0.40639839,0.27217507,1.6852484
498,1.0582856,0.48682585,0.19068234,1.7102821
499,1.0602997,0.54488277,0.13795175,1.7230653
500,1.0622834,0.60986388,0.084155895,1.7353158
501,1.064267,0.67111659,0.026631612,1.7417074
502,1.0662812,0.73876089,-0.028762139,1.748099
503,1.0682953,0.79841572,-0.085221156,1.7507621
504,1.070279,0.85860318,-0.14966966,1.7502295
505,1.0722931,0.91133374,-0.21784659,1.7411747
506,1.0742768,0.96512961,-0.29614353,1.7305222
507,1.0762604,1.0210559,-0.38456047,1.7108147
508,1.0782746,1.0791129,-0.48629323,1.6879115
509,1.0803192,1.1334413,-0.59708071,1.6564863
510,1.0822724,1.194694,-0.71639037,1.6197346
511,1.084256,1.2554141,-0.84049368,1.572863
512,1.0862702,1.320928,-0.96566224,1.5286545
513,1.0882843,1.3848438,-1.0897655,1.4775218
514,1.0902985,1.4439659,-1.1984226,1.423726
515,1.0922516,1.5041534,-1.2900352,1.3693974
516,1.0942658,1.5606124,-1.3667343,1.3182647
517,1.0962799,1.6165388,-1.4226607,1.2681973
518,1.0982941,1.6708673,-1.4626081,1.2181299
519,1.1003083,1.7182716,-1.4823155,1.1627362
520,1.1022919,1.7694043,-1.4823155,1.1116035
521,1.1043061,1.8098843,-1.470065,1.0567423
522,1.1063202,1.8450381,-1.4354439,0.99975067
523,1.1083344,1.865278,-1.3864417,0.94755274
524,1.110318,1.8780613,-1.3299826,0.89002848
525,1.1123322,1.8764633,-1.2697952,0.84049368
526,1.1143158,1.861017,-1.194694,0.79628515
527,1.1162995,1.8365159,-1.1190603,0.76059884
528,1.1183136,1.7912422,-1.0466223,0.7275756
529,1.1203583,1.7401094,-0.98643488,0.70094401
530,1.1223114,1.6847157,-0.95021588,0.68017137
531,1.1242951,1.6197346,-0.92305166,0.66525763
532,1.1263092,1.546764,-0.90654004,0.64608288
533,1.1283234,1.4626081,-0.88896316,0.63702816
534,1.1303376,1.3566142,-0.85327685,0.6359629
535,1.1322907,1.226652,-0.77764302,0.64501762
536,1.1343048,1.0705907,-0.63756078,0.67537767
537,1.136319,0.87617999,-0.4048005,0.70786822
538,1.1383026,0.65673554,-0.094808534,0.73663038
539,1.1403168,0.4362258,0.2428803,0.7483483
540,1.142392,0.2412824,0.57311225,0.73876089
541,1.1443146,0.064981133,0.8724516,0.72437984
542,1.1462982,-0.082557999,1.1371698,0.69401979
543,1.1482819,-0.20080236,1.3677995,0.65034395
544,1.1503571,-0.28975195,1.5712651,0.59814602
545,1.1522797,-0.34834146,1.7544906,0.53582799
546,1.1542633,-0.37444046,1.9164108,0.46232477
547,1.156247,-0.36485308,2.040514,0.37923414
548,1.1583222,-0.31585091,2.1294637,0.2806972
549,1.1602753,-0.2412824,2.1763353,0.18162759
550,1.1622589,-0.1438107,2.1864552,0.080960095
551,1.1642426,-0.026631612,2.1582258,-0.021837922
552,1.1663178,0.11025487,2.0852551,-0.11717909
553,1.1682709,0.25140241,1.9947077,-0.20346551
554,1.1702545,0.39095205,1.8892465,-0.28176245
555,1.1722382,0.52890378,1.7731327,-0.34088463
556,1.1743134,0.6540724,1.6383767,-0.39574575
557,1.1762665,0.76059884,1.478587,-0.42983422
558,1.1782807,0.84688526,1.3044163,-0.44741106
559,1.1802948,0.91825795,1.1190603,-0.44794372
560,1.1822785,0.97524959,0.93157375,-0.43089947
561,1.1842621,1.0114686,0.74728304,-0.39468047
562,1.1862763,1.0327739,0.58269966,-0.33981937
563,1.1882904,1.0402308,0.43462789,-0.26844665
564,1.1902741,1.0322412,0.30626354,-0.18908444
565,1.1922882,1.0130665,0.20186761,-0.095873803
566,1.1942719,0.98057592,0.11451593,0.0074568512
567,1.1962555,0.94595486,0.051132694,0.11345066
568,1.1982697,0.9086706,0.013848438,0.2263687
569,1.2003144,0.86978841,0.0021305289,0.33822146
570,1.2022675,0.83090627,0.006924219,0.45486793
571,1.2042511,0.79575253,0.026631612,0.56086171
572,1.2062653,0.76166409,0.055926383,0.66792083
573,1.2082795,0.7302388,0.088416949,0.7685883
574,1.2102631,0.70254189,0.12783173,0.86179894
575,1.2122467,0.67644292,0.16405073,0.94755274
576,1.2142609,0.6540724,0.18801917,1.0237192
577,1.2162445,0.63276708,0.20932446,1.0918961
578,1.2182282,0.60720074,0.21784659,1.1526161
579,1.2202423,0.58323228,0.21944448,1.2037488
580,1.222226,0.56512278,0.21624869,1.2442288
581,1.2242401,0.54381752,0.20612867,1.2793826
582,1.2261933,0.52091432,0.19441076,1.3038837
583,1.2281769,0.49854377,0.17736652,1.3241237
584,1.2301911,0.47510794,0.16671389,1.3454291
585,1.2321747,0.45167214,0.15446335,1.3592775
586,1.2341889,0.43036684,0.14008227,1.3667343
587,1.236203,0.40586576,0.12090752,1.3725933
588,1.2382782,0.386691,0.092145376,1.3693974
589,1.2402008,0.37390783,0.066579029,1.3683321
590,1.242154,0.35952675,0.03781689,1.3582122
591,1.2441681,0.34834146,0.012250541,1.3502227
592,1.2462433,0.340352,-0.015978966,1.3390374
593,1.2481354,0.3355583,-0.043675844,1.32945
594,1.2501191,0.32756883,-0.067644291,1.3203954
595,1.2521027,0.31851408,-0.087351687,1.3145363
596,1.2541779,0.30732879,-0.11132014,1.3108079
597,1.256131,0.29561087,-0.13315806,1.3086774
598,1.2581147,0.28442562,-0.16564862,1.3118732
599,1.2601288,0.267914,-0.19387813,1.3134711
600,1.2621125,0.25033715,-0.23276028,1.3140037
601,1.2641266,0.23062976,-0.27590349,1.3166668
602,1.2661408,0.2130529,-0.3222425,1.3086774
603,1.2681244,0.18961707,-0.35473305,1.2980248
604,1.2701386,0.16937704,-0.38509309,1.284709
605,1.2721222,0.14274544,-0.39894155,1.2687299
606,1.2741059,0.11611383,-0.40213734,1.2575446
607,1.2760895,0.084155895,-0.39361522,1.24849
608,1.2781037,0.054861121,-0.38083205,1.2447615
609,1.2801178,0.023968451,-0.36325517,1.2468921
610,1.282071,-0.0074568512,-0.3584615,1.2602079
611,1.2840851,-0.040480047,-0.36964676,1.2719258
612,1.2860993,-0.069242187,-0.39095205,1.2916331
613,1.2880829,-0.098536961,-0.42557314,1.3140037
614,1.2900666,-0.13156016,-0.46818373,1.3315805
615,1.2920502,-0.16192019,-0.50653327,1.3464943
616,1.2940338,-0.19281286,-0.54807854,1.3576796
617,1.296048,-0.22690132,-0.58802599,1.3646038
618,1.2980622,-0.26098979,-0.62584287,1.371528
619,1.3000763,-0.29667616,-0.66525763,1.3672669
620,1.30206,-0.33182988,-0.70786822,1.3640711
621,1.3040436,-0.36165729,-0.74728304,1.3475596
622,1.3060578,-0.39468047,-0.78776306,1.3315805
623,1.3080719,-0.42823631,-0.82504731,1.3060142
624,1.3100556,-0.45699844,-0.8724516,1.2745889
625,1.3120392,-0.48203218,-0.91666007,1.2335763
626,1.3140534,-0.51079428,-0.95607483,1.1840415
627,1.3160675,-0.53103435,-0.98643488,1.1265172
628,1.3180817,-0.54754591,-0.99655491,1.0583402
629,1.3200959,-0.55979645,-0.98803276,0.97844541
630,1.322049,-0.58056915,-0.95554221,0.89322424
631,1.3240631,-0.59441757,-0.90707266,0.79841572
632,1.3260468,-0.61092919,-0.83197153,0.70467246
633,1.3280609,-0.63543028,-0.73609775,0.60347229
634,1.3300446,-0.66312712,-0.62317973,0.50813115
635,1.3320282,-0.69934613,-0.49161956,0.41651839
636,1.3340119,-0.73929352,-0.34088463,0.32330775
637,1.3359955,-0.78776306,-0.18535602,0.23329292
638,1.3379792,-0.8362326,-0.023968451,0.14487597
639,1.3400238,-0.88736528,0.13741912,0.06018744
640,1.3420075,-0.94222641,0.29933932,-0.020240024
641,1.3439911,-0.99442434,0.45486793,-0.10333065
642,1.3459748,-1.0482203,0.59761333,-0.18375812
643,1.3479889,-1.1020161,0.73556513,-0.26365295
644,1.3500031,-1.1558119,0.86606002,-0.34248254
645,1.3519867,-1.2058793,0.98590225,-0.41705105
646,1.3540009,-1.2543489,1.0940266,-0.4910869
647,1.356015,-1.3028184,1.186172,-0.56299227
648,1.3580902,-1.3443637,1.2665994,-0.64022392
649,1.3600128,-1.3848438,1.3369069,-0.70999879
650,1.3619965,-1.4221281,1.3880396,-0.77338201
651,1.3640107,-1.4540859,1.4274544,-0.84262419
652,1.3660858,-1.4812502,1.4588797,-0.90707266
653,1.3679779,-1.5068166,1.4823155,-0.97045594
654,1.3699616,-1.5291871,1.4950987,-1.0343717
655,1.3719452,-1.546764,1.5073493,-1.087635
656,1.3740204,-1.5654061,1.510545,-1.1451592
657,1.3759125,-1.5797871,1.5094798,-1.1984226
658,1.3779267,-1.5936357,1.5089471,-1.2495552
659,1.3799408,-1.6106799,1.5052186,-1.3001553
660,1.382016,-1.6239957,1.506284,-1.3502227
661,1.3839081,-1.6431705,1.5030881,-1.3954965
662,1.3859223,-1.6650083,1.5052186,-1.4434333
663,1.3879364,-1.6895094,1.5121429,-1.4887071
664,1.3900116,-1.7182716,1.5217303,-1.5350461
665,1.3919037,-1.7491642,1.5329156,-1.5803198
666,1.3939179,-1.7805896,1.5451661,-1.6271914
667,1.3959015,-1.8184065,1.5515577,-1.6719326
668,1.3979767,-1.8551581,1.5574167,-1.717739
669,1.3999298,-1.8908445,1.5488945,-1.7603495
670,1.4019135,-1.9297266,1.5238608,-1.8082864
671,1.4038971,-1.9611518,1.4807175,-1.8524948
672,1.4059723,-1.9915119,1.4189322,-1.8945729
673,1.4078949,-2.0165455,1.3289174,-1.9403793
674,1.4099091,-2.0378509,1.222391,-1.9856529
675,1.4119232,-2.0607541,1.0972224,-2.0282636
676,1.4139984,-2.0767331,0.96246642,-2.0698087
677,1.4158905,-2.0900488,0.81759048,-2.1081583
678,1.4178742,-2.1007016,0.67377979,-2.1385183
679,1.4199189,-2.1124194,0.52943641,-2.1688783
680,1.4219941,-2.1182783,0.39308259,-2.1891184
681,1.4238861,-2.1182783,0.2625877,-2.2104237
682,1.4258698,-2.1124194,0.13369069,-2.223207
683,1.4278839,-2.0980384,0.016511599,-2.231729
684,1.4299591,-2.0724721,-0.085753791,-2.2349248
685,1.4318817,-2.0341225,-0.17363811,-2.2333269
686,1.4338959,-1.9920446,-0.25513083,-2.2184131
687,1.4359101,-1.9462382,-0.31158987,-2.1949775
688,1.4379853,-1.892975,-0.34514567,-2.1560953
689,1.4399079,-1.8434402,-0.34674358,-2.1145499
690,1.441861,-1.7848506,-0.32756883,-2.0692761
691,1.4438752,-1.7315874,-0.2806972,-2.0240026
692,1.4459503,-1.6666062,-0.23116238,-1.9808593
693,1.447873,-1.5899072,-0.18162759,-1.9446403
694,1.4498566,-1.5036207,-0.13422333,-1.9100192
695,1.4518402,-1.3992249,-0.11771172,-1.8748654
696,1.4539154,-1.2756542,-0.13635385,-1.8487664
697,1.455838,-1.1382351,-0.17150758,-1.8343854
698,1.4578522,-0.99975067,-0.21198763,-1.8290591
699,1.4598664,-0.86233157,-0.24714136,-1.8418423
700,1.46185,-0.73343456,-0.2727077,-1.865278
701,1.4638336,-0.60773337,-0.28016454,-1.9004318
702,1.4658478,-0.4857606,-0.2625877,-1.9467708
703,1.467862,-0.36591834,-0.21358553,-2.0069582
704,1.4698456,-0.24714136,-0.11824436,-2.0751352
705,1.4718598,-0.13582122,0.017044231,-2.1438446
706,1.4738129,-0.026631612,0.1933455,-2.2130868
707,1.4757965,0.07456851,0.4079963,-2.2807312
708,1.4778107,0.17097494,0.6540724,-2.3446472
709,1.4798249,0.26897928,0.92411691,-2.4043019
710,1.4818085,0.35579833,1.2159994,-2.4612935
711,1.4837921,0.44315001,1.5201324,-2.5086977
712,1.4858063,0.52357745,1.8375812,-2.5576999
713,1.4878205,0.60134178,2.1678131,-2.5976474
714,1.4897736,0.67697555,2.509763,-2.6338663
715,1.4917572,0.74355459,2.8549087,-2.6674223
716,1.4937714,0.8133294,3.1984565,-2.6919234
717,1.495755,0.87777793,3.5350802,-2.7126958
718,1.4977387,0.9353022,3.8488004,-2.7308054
719,1.4997528,0.98803276,4.123106,-2.7414582
720,1.5017365,1.0173275,4.352138,-2.7462518
721,1.5037506,1.0215886,4.5151234,-2.7462518
722,1.5057038,0.99229383,4.5790391,-2.7430561
723,1.5076874,0.9267801,4.5385594,-2.7393274
724,1.5097016,0.8266452,4.3579969,-2.7419908
725,1.5116852,0.68336713,4.0277648,-2.7505128
726,1.5136994,0.50493532,3.5446675,-2.7670245
727,1.5157135,0.29720879,2.9241509,-2.7867317
728,1.5177887,0.057524279,2.1827269,-2.8181572
729,1.5197113,-0.20559604,1.3454291,-2.8522456
730,1.521695,-0.47883639,0.44421527,-2.8868666
731,1.5237091,-0.75527251,-0.47936901,-2.9225531
732,1.5257843,-1.0317086,-1.3725933,-2.9582393
733,1.5277069,-1.2964269,-2.1907163,-2.9822078
734,1.5296906,-1.5425029,-2.8964541,-3.0077741
735,1.5316742,-1.7619474,-3.4541199,-3.0333405
736,1.5337494,-1.9419771,-3.8354847,-3.0567763
737,1.535672,-2.0799289,-4.0139165,-3.0855384
738,1.5376557,-2.1742048,-3.9819586,-3.1174965
739,1.5397003,-2.2178805,-3.7518613,-3.1489217
740,1.5417755,-2.2130868,-3.3433325,-3.1702271
741,1.5436676,-2.1491711,-2.8085697,-3.1851406
742,1.5456513,-2.0394487,-2.2082932,-3.1840754
743,1.5476654,-1.892975,-1.6000272,-3.1686292
744,1.5497406,-1.7241305,-1.0407634,-3.1361384
745,1.5516632,-1.5483619,-0.56991649,-3.0945933
746,1.5536774,-1.3789848,-0.20879184,-3.0503848
747,1.5556916,-1.2255868,0.029294772,-3.005111
748,1.5577668,-1.0902982,0.15978967,-2.9577067
749,1.5596894,-0.97791278,0.1949434,-2.9081719
750,1.5616425,-0.89002848,0.13795175,-2.8597023
751,1.5636566,-0.8314389,0.0031957934,-2.8059065
752,1.5657318,-0.7952199,-0.19547603,-2.7505128
753,1.5676239,-0.79255676,-0.43729106,-2.6988475
754,1.5696076,-0.81492728,-0.71639037,-2.6466496
755,1.5716217,-0.85966843,-1.0141318,-2.5965822
756,1.5736969,-0.92731273,-1.3076121,-2.5555694
757,1.5756195,-1.0167949,-1.5909724,-2.5092304
758,1.5776032,-1.1190603,-1.8471686,-2.4655545
759,1.5796173,-1.2303804,-2.0809941,-2.428803
760,1.5816925,-1.3432984,-2.2940471,-2.3989756
761,1.5835846,-1.4588797,-2.4868598,-2.3675501
762,1.5855683,-1.5632756,-2.6610305,-2.3419838
763,1.5875519,-1.6623452,-2.8091023,-2.3137543
764,1.5896271,-1.7534252,-2.9214878,-2.2887206
765,1.5915802,-1.8311896,-2.9923279,-2.2690134
766,1.5935334,-1.8945729,-3.0221553,-2.2530344
767,1.595517,-1.9451729,-3.0083067,-2.2402511
768,1.5975922,-1.9835224,-2.9635658,-2.2386532
769,1.5995758,-2.0096214,-2.9028456,-2.2407837
770,1.601529,-2.0154803,-2.834136,-2.2530344
771,1.6035126,-2.0117519,-2.7766118,-2.2711439
772,1.6055878,-1.9936424,-2.731338,-2.2919164
773,1.6075409,-1.9675435,-2.7015107,-2.3148196
774,1.6095551,-1.9318571,-2.6844664,-2.3446472
775,1.6115387,-1.8876486,-2.6834011,-2.3670175
776,1.6135529,-1.8407769,-2.6903255,-2.3899207
777,1.615567,-1.7837853,-2.7004454,-2.4138892
778,1.6175812,-1.7241305,-2.711098,-2.4399881
779,1.6195954,-1.6628778,-2.7132285,-2.4564998
780,1.621579,-1.6042882,-2.6940539,-2.4703484
781,1.6235932,-1.5451661,-2.6615632,-2.475142
782,1.6256073,-1.4908376,-2.6114957,-2.4783378
783,1.6276215,-1.4407701,-2.5390577,-2.4682178
784,1.6296051,-1.3912354,-2.4511735,-2.4543693
785,1.6316193,-1.3496901,-2.3552997,-2.4357271
786,1.6336029,-1.3070794,-2.2439797,-2.4016387
787,1.6355866,-1.2719258,-2.1342573,-2.3616912
788,1.6376007,-1.2367721,-2.0240026,-2.3116238
789,1.6396454,-1.2037488,-1.9254655,-2.2551649
790,1.6415985,-1.1733888,-1.8461033,-2.1981733
791,1.6435822,-1.144094,-1.7768611,-2.1369205
792,1.6455963,-1.113734,-1.7156084,-2.0703416
793,1.6476105,-1.0860372,-1.6570189,-2.0037625
794,1.6495941,-1.0546118,-1.5952336,-1.9382486
795,1.6515778,-1.031176,-1.5377092,-1.8626149
796,1.653592,-1.0029465,-1.4817829,-1.7939054
797,1.6555756,-0.97791278,-1.4285196,-1.7278589
798,1.6575898,-0.95181382,-1.3837786,-1.6623452
799,1.6596039,-0.92997587,-1.3443637,-1.6021577
800,1.6617401,-0.9086706,-1.3129385,-1.5425029
801,1.6635712,-0.88843054,-1.3012205,-1.4876418
802,1.6655548,-0.87671262,-1.3044163,-1.4354439
803,1.667569,-0.85966843,-1.3182647,-1.3821807
804,1.6696442,-0.84795052,-1.3576796,-1.3305153
805,1.6715668,-0.82984102,-1.3970944,-1.2825783
806,1.673581,-0.81545997,-1.4375744,-1.2319783
807,1.6755951,-0.79788309,-1.4716629,-1.1845741
808,1.6776703,-0.7771104,-1.5126755,-1.1366372
809,1.6795929,-0.75793564,-1.5483619,-1.0865698
810,1.6815461,-0.7323693,-1.5888419,-1.0306433
811,1.6835602,-0.70573771,-1.6277241,-0.96939063
812,1.6856354,-0.680704,-1.655421,-0.90014845
813,1.6875275,-0.6540724,-1.6761936,-0.81705785
814,1.6895111,-0.63276708,-1.6937705,-0.72864091
815,1.6914948,-0.59921128,-1.6990968,-0.62424499
816,1.69357,-0.56885123,-1.6996294,-0.51718587
817,1.6954926,-0.5299691,-1.6879115,-0.40533313
818,1.6974762,-0.48256481,-1.6682042,-0.28655612
819,1.6995209,-0.42557314,-1.6378441,-0.16777915
820,1.7015961,-0.36432046,-1.5989619,-0.04527374
821,1.7034882,-0.29454562,-1.5382419,0.070840083
822,1.7054718,-0.21731395,-1.4711303,0.18429075
823,1.707486,-0.14114754,-1.397627,0.2908172
824,1.7095612,-0.050600063,-1.3241237,0.386691
825,1.7114838,0.044208474,-1.2479573,0.47404268
826,1.713498,0.14061491,-1.1664646,0.56032908
827,1.7155121,0.23648871,-1.0849719,0.63756078
828,1.7176178,0.33502567,-0.99122858,0.70840085
829,1.7195099,0.42930159,-0.90121371,0.77284938
830,1.7214936,0.52517539,-0.80960101,0.8314389
831,1.7235077,0.62104917,-0.7094661,0.89162636
832,1.7255829,0.70520508,-0.58003652,0.94542223
833,1.727475,0.79255676,-0.42770368,0.99602228
834,1.7294587,0.87404948,-0.26205507,1.0423613
835,1.7314728,0.95500958,-0.081492729,1.0897655
836,1.733548,1.026915,0.10492855,1.1281151
837,1.7354706,1.1009508,0.31052458,1.1643341
838,1.7374543,1.1648667,0.51345748,1.2048141
839,1.7394684,1.2282499,0.72437984,1.2415657
840,1.7415436,1.2879047,0.92944324,1.27885
841,1.7434357,1.3507553,1.1211908,1.3145363
842,1.7454193,1.4093449,1.3081448,1.3502227
843,1.747403,1.4572818,1.4817829,1.3805827
844,1.7494782,1.5068166,1.655421,1.4109428
845,1.7514008,1.5547534,1.8322549,1.4402375
846,1.7534149,1.6005598,2.0096214,1.4674017
847,1.7554291,1.649562,2.1736722,1.4966966
848,1.7575043,1.6937705,2.3355923,1.5265239
849,1.7594574,1.75236,2.4868598,1.5584819
850,1.7614106,1.8120148,2.62854,1.5835156
851,1.7634247,1.8844528,2.7393274,1.5978967
852,1.7654999,1.9686087,2.8154941,1.6106799
853,1.7674225,2.0655477,2.8549087,1.6074841
854,1.7694062,2.1710091,2.8767467,1.6042882
855,1.7713898,2.2759376,2.8724856,1.6000272
856,1.773465,2.3755398,2.8607676,1.6010925
857,1.7753876,2.4778051,2.8463867,1.5989619
858,1.7773712,2.5912559,2.8442562,1.5941683
859,1.7794159,2.7121632,2.8346686,1.5813851
860,1.7814911,2.8479846,2.8154941,1.5574167
861,1.7833832,2.9997847,2.7840686,1.5217303
862,1.7853669,3.1622376,2.7473171,1.4892397
863,1.787381,3.310842,2.7249465,1.4588797
864,1.7894562,3.4429348,2.7169571,1.4476944
865,1.7913788,3.5297537,2.7302728,1.4551512
866,1.793393,3.5755601,2.7590349,1.484446
867,1.7954071,3.5681033,2.7904603,1.5153387
868,1.7974518,3.5143075,2.8154941,1.5563514
869,1.7994049,3.4157705,2.8234835,1.5978967
870,1.8013886,3.2719598,2.7915256,1.635181
871,1.8034027,3.0961912,2.748915,1.6703347
872,1.8054779,2.8921931,2.718555,1.6895094
873,1.80737,2.6658244,2.7350664,1.7038904
874,1.8093537,2.4229441,2.8112328,1.7049558
875,1.8113678,2.1758027,2.9566414,1.6921726
876,1.813443,1.9180087,3.1894019,1.6623452
877,1.8153351,1.6650083,3.4972632,1.6213325
878,1.8173188,1.4365091,3.8583879,1.5616777
879,1.8193634,1.2250541,4.2195125,1.4855113
880,1.8214386,1.0354371,4.5087318,1.3954965
881,1.8233307,0.8724516,4.6775761,1.2905679
882,1.8253144,0.73290193,4.6876965,1.180313
883,1.8273285,0.61678815,4.5311022,1.067395
884,1.8294037,0.53689331,4.2115231,0.95021588
885,1.8313263,0.48363006,3.7539918,0.83676523
886,1.8333405,0.45806372,3.1888692,0.7323693
887,1.8353546,0.45220476,2.5513084,0.64981133
888,1.8373993,0.45007423,1.8940402,0.58855861
889,1.8393524,0.45220476,1.2564794,0.56299227
890,1.8413361,0.45646581,0.67857343,0.572047
891,1.8433503,0.46498793,0.19281286,0.61199445
892,1.8453949,0.49055427,-0.18642128,0.67910612
893,1.8473175,0.52943641,-0.43995422,0.77231675
894,1.8493012,0.58216703,-0.57044911,0.87777793
895,1.8512848,0.64874607,-0.59122175,1.0018812
896,1.85336,0.7094661,-0.52837116,1.1211908
897,1.8552826,0.75740302,-0.41438788,1.2394352
898,1.8572968,0.78776306,-0.28016454,1.3427658
899,1.8593415,0.79841572,-0.14221281,1.4306501
900,1.8612946,0.79095888,-0.014913702,1.5094798
901,1.8633087,0.77125144,0.094275907,1.5733956
902,1.8652924,0.73609775,0.18429075,1.6250609
903,1.8673066,0.69242191,0.25086978,1.6660736
904,1.8693207,0.64128917,0.30360037,1.7022926
905,1.8713044,0.58269966,0.33981937,1.7230653
906,1.8733185,0.51825118,0.3637878,1.7411747
907,1.8753327,0.45593318,0.37071204,1.7502295
908,1.8773774,0.39361522,0.37444046,1.758219
909,1.8793305,0.33449304,0.376571,1.7576864
910,1.8813141,0.28495824,0.38296258,1.7534252
911,1.8833283,0.24074976,0.38722363,1.7496969
912,1.8854035,0.20133498,0.39574575,1.7390442
913,1.8872956,0.175236,0.39947417,1.7283915
914,1.8892792,0.1571265,0.41172472,1.7145431
915,1.8912934,0.14221281,0.42024684,1.6948358
916,1.8933686,0.14221281,0.42930159,1.6740631
917,1.8952607,0.14168017,0.43569317,1.6500946
918,1.8972443,0.15020229,0.43995422,1.6261262
919,1.899289,0.15925704,0.43888897,1.5994946
920,1.9013642,0.17097494,0.4314321,1.5717977
921,1.9032563,0.18535602,0.42237735,1.5425029
922,1.9052399,0.20186761,0.41278997,1.5185345
923,1.9072235,0.21624869,0.40053943,1.4988271
924,1.9092987,0.23169503,0.39574575,1.4817829
925,1.9112213,0.24767399,0.39361522,1.4668691
926,1.9132355,0.26418558,0.39574575,1.4583471
927,1.9152497,0.27909929,0.40160471,1.4498249
928,1.9173249,0.28975195,0.41651839,1.4460965
929,1.9192475,0.30253512,0.43782368,1.4466292
930,1.9212006,0.31212249,0.46871635,1.4471618
931,1.9232148,0.31851408,0.50706589,1.4487597
932,1.9252899,0.33023199,0.55500281,1.4450313
933,1.9272126,0.33289513,0.61359233,1.4498249
934,1.9291962,0.33822146,0.67697555,1.4562165
935,1.9311798,0.350472,0.74781567,1.4620755
936,1.933255,0.35100463,0.82451469,1.468467
937,1.9352082,0.3536678,0.90334427,1.4775218
938,1.9371918,0.35739622,0.98536962,1.4780544
939,1.939206,0.36005938,1.067395,1.4849787
940,1.9412812,0.36112466,1.1478225,1.4913702
941,1.9432038,0.36059201,1.2303804,1.4993597
942,1.9452179,0.36272255,1.3129385,1.5073493
943,1.9471711,0.36804888,1.3907027,1.5116103
944,1.9492462,0.37071204,1.474326,1.5180018
945,1.9511689,0.37444046,1.5568841,1.5227956
946,1.9531525,0.37816888,1.6357136,1.5291871
947,1.9551361,0.38242993,1.7092168,1.5318503
948,1.9572113,0.38456047,1.780057,1.5398397
949,1.9591645,0.38828889,1.8402443,1.5419703
950,1.9611481,0.386691,1.8913771,1.5456988
951,1.9631317,0.38242993,1.9329224,1.5504924
952,1.9652069,0.376571,1.9670109,1.5504924
953,1.9671601,0.36964676,1.9936424,1.5531555
954,1.9691437,0.36005938,2.010154,1.5515577
955,1.9711274,0.350472,2.0181434,1.5488945
956,1.9732025,0.33981937,2.0192087,1.5478293
957,1.9751557,0.33129725,2.0176108,1.5472966
958,1.9771698,0.32064459,2.0106866,1.5419703
959,1.979184,0.314253,1.9979035,1.5382419
960,1.9811676,0.30786142,1.984055,1.5377092
961,1.9831513,0.30573091,1.9664782,1.5345135
962,1.9851654,0.30360037,1.9483687,1.5334482
963,1.9871796,0.29987195,1.9244002,1.5350461
964,1.9891632,0.29774141,1.9004318,1.536644
965,1.9911469,0.29561087,1.8690065,1.5403724
966,1.9931305,0.28921929,1.8386464,1.551025
967,1.9951142,0.28868666,1.7976338,1.5611451
968,1.9971283,0.27909929,1.7496969,1.5797871
969,1.9991425,0.27590349,1.7017599,1.6016251
970,2.0011261,0.26631612,1.6516925,1.6239957
971,2.0031098,0.25885928,1.5978967,1.6511599
972,2.0051239,0.25992453,1.5446335,1.6788567
973,2.0071076,0.25619611,1.4924355,1.7086842
974,2.0090912,0.25726137,1.4386396,1.7374463
975,2.0110749,0.2545982,1.3880396,1.7640779
976,2.013089,0.25992453,1.3363743,1.7928401
977,2.0150727,0.26578349,1.2825783,1.8157432
978,2.0170868,0.26578349,1.230913,1.8445054
979,2.0191315,0.26844665,1.1781825,1.8700718
980,2.0210846,0.27430561,1.1275824,1.8940402
981,2.0230988,0.27856666,1.0727214,1.9206718
982,2.0250824,0.29028457,1.0205233,1.9398465
983,2.0270966,0.29987195,0.96086854,1.9579561
984,2.0291107,0.31904671,0.8990832,1.9750003
985,2.0310944,0.33981937,0.83783048,1.9813919
986,2.0331086,0.36751625,0.77444726,1.9909793
987,2.0350922,0.39627838,0.70627034,1.9925772
988,2.0371674,0.4495416,0.60134178,1.9851203
989,2.0391205,0.47031426,0.56299227,1.9824572
990,2.0411042,0.50333744,0.48842376,1.969674
991,2.0430878,0.54381752,0.40160471,1.9552929
992,2.045163,0.59921128,0.27110979,1.9244002
993,2.0470856,0.61572284,0.22583607,1.9126823
994,2.0490998,0.64821345,0.14168017,1.8876486
995,2.0510834,0.6780408,0.05965481,1.861017
996,2.0531586,0.72331458,-0.049002163,1.8093517
997,2.0550812,0.74142408,-0.10279802,1.7726001
998,2.0570649,0.75420725,-0.12250541,1.75236
999,2.059079,0.77125144,-0.14753912,1.7108147
1000,2.0611542,0.78989357,-0.13901702,1.6421051
1001,2.0630463,0.79841572,-0.13049489,1.6181368
1002,2.0650299,0.80374205,-0.10865697,1.5627429
1003,2.0670136,0.81918836,-0.085221156,1.5030881
1004,2.0690888,0.8543421,-0.07456851,1.4040185
1005,2.0710114,0.8724516,-0.078296937,1.3693974
1006,2.0730255,0.91879058,-0.091080114,1.2953615
1007,2.0750397,0.95607483,-0.10599381,1.2144015
1008,2.0771149,1.026915,-0.11291803,1.0881677
1009,2.079068,1.0705907,-0.10279802,1.0013486
1010,2.0810212,1.0945592,-0.09640643,0.95767277
1011,2.0830353,1.1414309,-0.048469532,0.81492728
1012,2.0851105,1.1653993,0.0031957934,0.72224933
1013,2.0870331,1.1797804,0.069774821,0.63276708
1014,2.0890168,1.1920309,0.15073492,0.55074173
1015,2.0910004,1.1994878,0.18482338,0.5139901
1016,2.0930756,1.226652,0.2625877,0.39947417
1017,2.0949982,1.230913,0.30200246,0.33023199
1018,2.0969818,1.2293152,0.31957933,0.29720879
1019,2.0990265,1.1659319,0.40586576,0.24074976
1020,2.1011017,1.0391655,0.5901565,0.23489082
1021,2.1029938,0.85327685,0.81759048,0.21997711
1022,2.1049774,0.63649553,1.0524813,0.18748654
1023,2.1069916,0.40213734,1.2793826,0.14221281
1024,2.1090668,0.18109496,1.4551512,0.078296937
1025,2.1109894,-0.018109497,1.5893745,0.0
1026,2.1130036,-0.20559604,1.6698021,-0.087884314
1027,2.1150177,-0.36538571,1.7129452,-0.18482338
1028,2.1171234,-0.4990764,1.7310548,-0.28229508
1029,2.1190155,-0.60080916,1.722,-0.39361522
1030,2.1209687,-0.65673554,1.6985642,-0.5118596
1031,2.1229828,-0.67750818,1.6591494,-0.62957132
1032,2.125058,-0.66046399,1.6048208,-0.74248934
1033,2.1269501,-0.61838603,1.5558188,-0.84795052
1034,2.1289337,-0.5587312,1.5014902,-0.94542223
1035,2.1309174,-0.52197957,1.4753913,-0.99122858
1036,2.1329926,-0.40213734,1.3747238,-1.0998856
1037,2.1348847,-0.35739622,1.3289174,-1.1345067
1038,2.1368683,-0.27963191,1.2239889,-1.1856394
1039,2.138913,-0.17470337,1.031176,-1.2271847
1040,2.1409882,-0.11771172,0.8905611,-1.2447615
1041,2.1428803,-0.095341168,0.82238418,-1.2506205
1042,2.1448639,-0.056991648,0.69135666,-1.2639363
1043,2.1468781,-0.03781689,0.57897121,-1.2697952
1044,2.1489533,-0.028229509,0.47137952,-1.2665994
1045,2.1508759,-0.033555832,0.43782368,-1.2548815
1046,2.1528595,-0.036218993,0.43409526,-1.242631
1047,2.1548737,-0.055393752,0.45380265,-1.1941614
1048,2.1569489,-0.066579029,0.50173956,-1.1483551
1049,2.158902,-0.071372718,0.57471019,-1.0940266
1050,2.1608551,-0.072437987,0.66792083,-1.0317086
1051,2.1628693,-0.06178534,0.77071881,-0.95767277
1052,2.1649445,-0.046339005,0.88150632,-0.87191898
1053,2.1668976,-0.024501082,0.98536962,-0.7819041
1054,2.1688813,0.0037284256,1.0785803,-0.68709558
1055,2.1708649,0.037284255,1.1520835,-0.58483016
1056,2.1729401,0.06870956,1.2005531,-0.47830373
1057,2.1748627,0.095873803,1.2191951,-0.36804888
1058,2.1768463,0.11824436,1.2090752,-0.2593919
1059,2.1788605,0.13688648,1.1835088,-0.15339808
1060,2.1809357,0.14647387,1.1456919,-0.053795855
1061,2.1828278,0.14807177,1.0998856,0.03834952
1062,2.1848114,0.1454086,1.0466223,0.12144015
1063,2.1867951,0.14274544,1.0210559,0.16085494
1064,2.1888703,0.12783173,0.94222641,0.2593919
1065,2.1907929,0.11984225,0.88896316,0.31372038
1066,2.1927765,0.11558119,0.86392945,0.33289513
1067,2.1947907,0.10386328,0.79095888,0.39095205
1068,2.1968659,0.099069595,0.74461985,0.41758367
1069,2.198819,0.094275907,0.70733559,0.44208476
1070,2.2007721,0.098004326,0.67271453,0.45753109
1071,2.2027863,0.09960223,0.64395237,0.47137952
1072,2.2048615,0.10918961,0.61838603,0.47723848
1073,2.2067841,0.12037488,0.59867865,0.47883639
1074,2.2087677,0.13422333,0.58323228,0.47830373
1075,2.2107514,0.15073492,0.57044911,0.47031426
1076,2.2128266,0.16458336,0.56192702,0.45859635
1077,2.2147492,0.17736652,0.5635249,0.44368264
1078,2.2167328,0.18588865,0.57098174,0.43303001
1079,2.218747,0.18695392,0.57790595,0.42024684
1080,2.2208222,0.17949706,0.58749336,0.40746364
1081,2.2227143,0.16884442,0.59175438,0.39627838
1082,2.2246979,0.15765914,0.59228706,0.38882151
1083,2.2266816,0.14008227,0.59068912,0.37870151
1084,2.2287567,0.097471699,0.57897121,0.36432046
1085,2.2306794,0.082557999,0.56885123,0.36005938
1086,2.2326935,0.05273059,0.55020911,0.34887412
1087,2.2347077,0.017044231,0.51665324,0.33023199
1088,2.2367829,-0.006924219,0.49428272,0.31904671
1089,2.238736,-0.020772656,0.47191215,0.30945933
1090,2.2406891,-0.025566347,0.44581318,0.30040458
1091,2.2427033,-0.025566347,0.41971418,0.2908172
1092,2.2447785,-0.018109497,0.3920173,0.28762141
1093,2.2467011,-0.0058589545,0.36485308,0.28815404
1094,2.2486847,0.010120012,0.33023199,0.29294774
1095,2.2506684,0.030360037,0.29880667,0.30306774
1096,2.2527436,0.049534798,0.26365295,0.31957933
1097,2.2546662,0.066579029,0.23489082,0.33662358
1098,2.2566498,0.087884314,0.21358553,0.36112466
1099,2.258664,0.10652645,0.19920446,0.38722363
1100,2.2607392,0.12783173,0.18482338,0.41971418
1101,2.2626313,0.1438107,0.17097494,0.45167214
1102,2.2646149,0.14860439,0.16458336,0.47084689
1103,2.2665985,0.15393071,0.15446335,0.51132691
1104,2.2686737,0.15020229,0.13901702,0.57897121
1105,2.2705963,0.1470065,0.13582122,0.60347229
1106,2.2726105,0.14061491,0.13209279,0.6492787
1107,2.2746247,0.12836437,0.13741912,0.72171664
1108,2.2766999,0.12357068,0.15339808,0.76752305
1109,2.2786225,0.11664646,0.175236,0.81013364
1110,2.2805756,0.11717909,0.19174761,0.8314389
1111,2.2825898,0.11611383,0.2263687,0.87564737
1112,2.2846649,0.11664646,0.28016454,0.92038846
1113,2.286557,0.11984225,0.29774141,0.9353022
1114,2.2885407,0.1257012,0.33076462,0.96086854
1115,2.2905548,0.13795175,0.35952675,0.98536962
1116,2.29263,0.16724652,0.3898868,1.0210559
1117,2.2945526,0.19068234,0.39734364,1.0444918
1118,2.2965363,0.20453078,0.40320259,1.0540792
1119,2.2985504,0.23595607,0.39681101,1.0812434
1120,2.3006256,0.27483824,0.38296258,1.1227888
1121,2.3025177,0.29401299,0.37870151,1.1313108
1122,2.3045014,0.32170987,0.37603834,1.1611383
1123,2.306485,0.34621096,0.37923414,1.1914983
1124,2.3085602,0.38828889,0.38935417,1.2463595
1125,2.3104828,0.39734364,0.39734364,1.2650015
1126,2.312497,0.41758367,0.42024684,1.3054816
1127,2.3145111,0.42983422,0.45167214,1.3448963
1128,2.3165863,0.44687843,0.51558799,1.4098775
1129,2.3185089,0.4495416,0.55766594,1.4530207
1130,2.3204926,0.45007423,0.58110178,1.4695324
1131,2.3225067,0.45380265,0.62317973,1.5116103
1132,2.3245819,0.45167214,0.68816084,1.572863
1133,2.326474,0.45806372,0.70786822,1.5915051
1134,2.3284577,0.46019423,0.74941355,1.6309199
1135,2.3304718,0.46552056,0.79042625,1.6628778
1136,2.332547,0.47510794,0.83303678,1.7145431
1137,2.3344391,0.4777711,0.84422207,1.7326527
1138,2.3364533,0.48256481,0.86179894,1.7651432
1139,2.3384674,0.49002165,0.86978841,1.814678
1140,2.3405426,0.49481535,0.86339682,1.8477012
1141,2.3424347,0.49694586,0.85860318,1.8604844
1142,2.3444489,0.50333744,0.83942837,1.8892465
1143,2.346463,0.51239222,0.81279677,1.9228023
1144,2.3485077,0.51558799,0.79788309,1.9419771
1145,2.3504303,0.51771855,0.77391464,1.9606192
1146,2.352414,0.51771855,0.7637946,1.969674
1147,2.3543976,0.51931643,0.7302388,1.9808593
1148,2.3564728,0.52464277,0.68762821,1.9872508
1149,2.3584259,0.52304482,0.65886605,1.9941751
1150,2.3603791,0.52091432,0.6492787,1.995773
1151,2.3623932,0.51878381,0.62371236,1.9952403
1152,2.3644684,0.51079428,0.5816344,1.9915119
1153,2.366391,0.50173956,0.55553544,1.9829898
1154,2.3683747,0.49801114,0.53795856,1.9734024
1155,2.3703583,0.48682585,0.5044027,1.963815
1156,2.3724335,0.47617322,0.44687843,1.9462382
1157,2.3743561,0.46924898,0.42663842,1.9387813
1158,2.3763398,0.46125951,0.38083205,1.9244002
1159,2.3783539,0.45007423,0.34780884,1.9094865
1160,2.3804291,0.43196473,0.30679616,1.8764633
1161,2.3823212,0.42450789,0.29454562,1.8620822
1162,2.3843048,0.41385525,0.27217507,1.8274611
1163,2.3862885,0.40426785,0.25086978,1.7928401
1164,2.3883637,0.37923414,0.21731395,1.7225326
1165,2.3902863,0.37497309,0.20453078,1.6980315
1166,2.3922699,0.35473305,0.18109496,1.6490294
1167,2.3942841,0.33396041,0.15446335,1.5978967
1168,2.3963593,0.30040458,0.12357068,1.5078819
1169,2.3982819,0.28921929,0.11451593,1.4780544
1170,2.400235,0.26312032,0.09267801,1.4178669
1171,2.4022492,0.24021713,0.08362326,1.3550164
1172,2.4043244,0.2066613,0.088949583,1.2942963
1173,2.406247,0.17896444,0.091080114,1.2357068
1174,2.4082306,0.14860439,0.10439592,1.1781825
1175,2.4102143,0.10652645,0.12357068,1.133974
1176,2.4122895,0.067111664,0.14860439,1.0966897
1177,2.4142121,0.01917476,0.17363811,1.0695255
1178,2.4162262,-0.03089267,0.17843179,1.0535465
1179,2.4182709,-0.077764302,0.15978967,1.0476876
1180,2.420224,-0.12303805,0.12144015,1.0524813
1181,2.4222382,-0.16245283,0.056459017,1.0604708
1182,2.4242218,-0.19920446,-0.028229509,1.0700581
1183,2.426236,-0.22583607,-0.1123854,1.0711234
1184,2.4282502,-0.2444782,-0.1933455,1.0689929
1185,2.4302338,-0.25885928,-0.2625877,1.0610034
1186,2.432248,-0.26844665,-0.304133,1.0466223
1187,2.4342316,-0.2806972,-0.32756883,1.0290455
1188,2.4363068,-0.30466563,-0.31638354,0.99921805
1189,2.4382599,-0.32810146,-0.29241508,0.97951066
1190,2.4402436,-0.34088463,-0.27110979,0.9667275
1191,2.4422577,-0.38402784,-0.18961707,0.93690008
1192,2.4443024,-0.4181163,-0.13422333,0.92464954
1193,2.446225,-0.45007423,-0.072970614,0.91506219
1194,2.4482086,-0.46871635,-0.037284255,0.91186637
1195,2.4501923,-0.49854377,0.042077947,0.9171927
1196,2.4522675,-0.54328489,0.17257284,0.93317169
1197,2.4541901,-0.55393749,0.21891184,0.93903065
1198,2.4561737,-0.58056915,0.31105721,0.94488955
1199,2.4581879,-0.60240704,0.39681101,0.94169378
1200,2.4602936,-0.64075655,0.51984906,0.92038846
1201,2.4621552,-0.65513766,0.55340487,0.90707266
1202,2.4641388,-0.68603033,0.61945128,0.86925578
1203,2.4661225,-0.72065139,0.67111659,0.82025361
1204,2.4681977,-0.77924097,0.73769563,0.72970617
1205,2.4701203,-0.80374205,0.76166409,0.69721556
1206,2.4721039,-0.85167891,0.8000136,0.62690812
1207,2.4741181,-0.90227902,0.84155893,0.55127436
1208,2.4761933,-0.968858,0.90920323,0.42983422
1209,2.4781464,-0.99335909,0.93903065,0.38775626
1210,2.4800995,-1.0322412,0.99815279,0.30200246
1211,2.4821137,-1.0689929,1.0626013,0.20932446
1212,2.4841889,-1.1084076,1.1723236,0.06870956
1213,2.486142,-1.1169298,1.2106731,0.023435818
1214,2.4880951,-1.1302456,1.2868395,-0.069242187
1215,2.4900788,-1.1408982,1.3608754,-0.165116
1216,2.492154,-1.1494204,1.4615428,-0.30786142
1217,2.4940766,-1.149953,1.4924355,-0.35526571
1218,2.4960602,-1.149953,1.5472966,-0.45327002
1219,2.4981049,-1.1494204,1.5989619,-0.54861122
1220,2.5001801,-1.1403656,1.6612799,-0.69029135
1221,2.5020722,-1.1419635,1.6799221,-0.74035877
1222,2.5040558,-1.135572,1.7129452,-0.83303678
1223,2.50607,-1.1334413,1.7358484,-0.92464954
1224,2.5081452,-1.1313108,1.7465011,-1.0556771
1225,2.5100678,-1.1307782,1.7486316,-1.0982877
1226,2.5120819,-1.1286477,1.7331853,-1.1819109
1227,2.5140961,-1.1259845,1.6974989,-1.3022858
1228,2.5161713,-1.1195929,1.653823,-1.3747238
1229,2.5180939,-1.109473,1.6000272,-1.4487597
1230,2.5200775,-1.1004182,1.5355787,-1.5174692
1231,2.5220917,-1.0860372,1.4594123,-1.577124
1232,2.5241669,-1.0652645,1.3763217,-1.6399746
1233,2.526059,-1.0466223,1.2916331,-1.6974989
1234,2.5280426,-1.0301107,1.2436962,-1.7235979
1235,2.5300568,-0.98803276,1.1030813,-1.7992316
1236,2.532132,-0.95980328,1.0040118,-1.839179
1237,2.5340241,-0.94062853,0.95660746,-1.8583539
1238,2.5360077,-0.90813798,0.86339682,-1.8881812
1239,2.5380524,-0.85913581,0.72704297,-1.9206718
1240,2.5401276,-0.82344943,0.64022392,-1.937716
1241,2.5420197,-0.79575253,0.55606806,-1.9398465
1242,2.5440033,-0.78083885,0.51239222,-1.9403793
1243,2.5460175,-0.74675035,0.3920173,-1.929194
1244,2.5480927,-0.72810823,0.31105721,-1.9132149
1245,2.5500153,-0.71372718,0.23062976,-1.8892465
1246,2.5520295,-0.70413983,0.15233281,-1.8546255
1247,2.5540436,-0.68922609,0.074035883,-1.820537
1248,2.5561188,-0.68762821,0.00053263223,-1.7768611
1249,2.5580414,-0.68656296,-0.071372718,-1.7289242
1250,2.5600251,-0.68709558,-0.14008227,-1.6745957
1251,2.5620392,-0.69188929,-0.20879184,-1.617604
1252,2.5641144,-0.69721556,-0.2775014,-1.5542208
1253,2.5660065,-0.70041138,-0.33981937,-1.4929681
1254,2.5679901,-0.70147663,-0.39414784,-1.4258565
1255,2.5699738,-0.70254189,-0.43303001,-1.3619406
1256,2.572049,-0.69295454,-0.46392268,-1.2953615
1257,2.5739411,-0.68176925,-0.47457531,-1.2639363
1258,2.5759552,-0.63223445,-0.48469532,-1.1781825
1259,2.5779694,-0.58589548,-0.46818373,-1.1249193
1260,2.5800446,-0.52038169,-0.43995422,-1.0839065
1261,2.5819367,-0.43675843,-0.39361522,-1.0540792
1262,2.5839508,-0.34301516,-0.3355583,-1.0306433
1263,2.585965,-0.23648871,-0.27696875,-1.0210559
1264,2.5880402,-0.12144015,-0.21145499,-1.0205233
1265,2.5899323,-0.007989483,-0.15446335,-1.0322412
1266,2.5919464,0.10759171,-0.099069595,-1.0519487
1267,2.5938996,0.21198763,-0.06018744,-1.0823087
1268,2.5959748,0.30306774,-0.034088463,-1.1249193
1269,2.5979279,0.376571,-0.032490566,-1.1765846
1270,2.599881,0.43835631,-0.052197959,-1.2357068
1271,2.6018647,0.46125951,-0.06870956,-1.2681973
1272,2.6039399,0.50173956,-0.16032229,-1.3747238
1273,2.6058625,0.50280482,-0.19920446,-1.4152038
1274,2.6078766,0.49321744,-0.30093721,-1.500425
1275,2.6098603,0.42131209,-0.50227219,-1.6378441
1276,2.6119355,0.34088463,-0.66419238,-1.7267936
1277,2.6138581,0.2908172,-0.75260931,-1.7715348
1278,2.6158722,0.098536961,-1.0333065,-1.8967034
1279,2.6178864,-0.055926383,-1.2234563,-1.9765981
1280,2.6199616,-0.24021713,-1.3965617,-2.0437098
1281,2.6218537,-0.43196473,-1.5441009,-2.1012342
1282,2.6238678,-0.63223445,-1.6607473,-2.1502364
1283,2.625882,-0.82984102,-1.7395768,-2.1907163
1284,2.6279572,-1.0253171,-1.7720674,-2.2205439
1285,2.6298493,-1.2058793,-1.7555559,-2.2429142
1286,2.6318634,-1.3789848,-1.690042,-2.2562301
1287,2.6338471,-1.5393071,-1.5803198,-2.2567627
1288,2.6359223,-1.6884441,-1.4349113,-2.249306
1289,2.6378754,-1.824798,-1.257012,-2.231729
1290,2.639859,-1.9441077,-1.0530139,-2.2045648
1291,2.6418427,-2.0532973,-0.83303678,-2.163552
1292,2.6439179,-2.146508,-0.60293967,-2.1214743
1293,2.6458405,-2.2253375,-0.36751625,-2.0756679
1294,2.6478546,-2.2876554,-0.1272991,-2.0229373
1295,2.6498383,-2.334527,0.10546118,-1.9691414
1296,2.6519135,-2.3638217,0.34088463,-1.9206718
1297,2.6538361,-2.3718114,0.56618804,-1.8695391
1298,2.6558503,-2.3574302,0.78723043,-1.8130801
1299,2.6578949,-2.3190808,1.0045444,-1.758219
1300,2.6598481,-2.2370553,1.2341089,-1.6980315
1301,2.6618622,-2.1007016,1.4711303,-1.6325178
1302,2.6638459,-1.9110844,1.717739,-1.5643408
1303,2.66586,-1.6911073,1.9590213,-1.4966966
1304,2.6678742,-1.4626081,2.1795311,-1.4370418
1305,2.6698578,-1.2389026,2.3712788,-1.3773869
1306,2.671872,-1.0322412,2.5385251,-1.325189
1307,2.6738861,-0.85008103,2.6652918,-1.2841763
1308,2.6759308,-0.69561768,2.7526433,-1.2543489
1309,2.6778839,-0.56725335,2.8069718,-1.2410331
1310,2.6798676,-0.46392268,2.829875,-1.2468921
1311,2.6818817,-0.38775626,2.8218856,-1.2719258
1312,2.6839569,-0.32969934,2.7888622,-1.3044163
1313,2.6858795,-0.29348037,2.735599,-1.3491575
1314,2.6878632,-0.27856666,2.6684875,-1.397627
1315,2.6898468,-0.27537087,2.5912559,-1.4514228
1316,2.691922,-0.29028457,2.5060346,-1.5137408
1317,2.6938446,-0.31531829,2.4149544,-1.5707325
1318,2.6958283,-0.34727621,2.3169501,-1.6335831
1319,2.6978424,-0.38722363,2.2168152,-1.6884441
1320,2.6999176,-0.43089947,2.1161478,-1.7454358
1321,2.7018097,-0.47617322,2.0170782,-1.7976338
1322,2.7037934,-0.51984906,1.9217371,-1.8381138
1323,2.705777,-0.56139439,1.8333201,-1.8706044
1324,2.7078522,-0.5949502,1.7512947,-1.8967034
1325,2.7097748,-0.62158179,1.6724652,-1.9089539
1326,2.711789,-0.63862604,1.6042882,-1.9132149
1327,2.7138031,-0.64555025,1.5446335,-1.9094865
1328,2.7158783,-0.63969129,1.4860439,-1.897236
1329,2.7178009,-0.6178534,1.4269217,-1.8833876
1330,2.7197541,-0.58696073,1.3566142,-1.8647454
1331,2.7217682,-0.53955644,1.2724584,-1.8407769
1332,2.7238434,-0.4809669,1.1781825,-1.8109496
1333,2.7257355,-0.41651839,1.0780476,-1.7773937
1334,2.7277191,-0.33662358,0.97738016,-1.743838
1335,2.7297333,-0.25726137,0.87511474,-1.7108147
1336,2.7318085,-0.17949706,0.78936094,-1.6788567
1337,2.7337006,-0.09960223,0.7094661,-1.6490294
1338,2.7357148,-0.022903185,0.64288712,-1.6197346
1339,2.7377594,0.043143209,0.5901565,-1.5893745
1340,2.7398346,0.10652645,0.54861122,-1.5611451
1341,2.7417267,0.15819177,0.5118596,-1.5259913
1342,2.7437104,0.20879184,0.48149952,-1.4993597
1343,2.7457245,0.25140241,0.44421527,-1.4668691
1344,2.7477997,0.28655612,0.40320259,-1.4413028
1345,2.7497223,0.31265512,0.35473305,-1.4162691
1346,2.7517365,0.32863408,0.29667616,-1.3949639
1347,2.7537506,0.33981937,0.23276028,-1.3720607
1348,2.7557953,0.34194988,0.1587244,-1.3507553
1349,2.7577484,0.33662358,0.082025364,-1.3283848
1350,2.7597321,0.31851408,0.0047936901,-1.3129385
1351,2.7617462,0.29614353,-0.070840083,-1.2926984
1352,2.7637909,0.27004454,-0.14061491,-1.2777847
1353,2.7657135,0.23702134,-0.20453078,-1.2655342
1354,2.7677277,0.19867182,-0.2647182,-1.2538162
1355,2.7697419,0.15393071,-0.32384038,-1.2452941
1356,2.771817,0.10705908,-0.38402784,-1.2362394
1357,2.7737091,0.057524279,-0.44741106,-1.2287825
1358,2.7756928,0.010120012,-0.51718587,-1.2213258
1359,2.7777375,-0.044741109,-0.58536279,-1.2191951
1360,2.7798127,-0.094808534,-0.66046399,-1.2170646
1361,2.7817047,-0.1454086,-0.73396719,-1.2170646
1362,2.7836884,-0.1949434,-0.80320942,-1.2191951
1363,2.7857025,-0.24021713,-0.87404948,-1.222391
1364,2.7877777,-0.28389299,-0.94275904,-1.2239889
1365,2.7897003,-0.3222425,-1.0040118,-1.226652
1366,2.7917145,-0.3584615,-1.0668623,-1.2271847
1367,2.7937287,-0.38509309,-1.1222562,-1.2239889
1368,2.7958039,-0.41278997,-1.1755193,-1.226652
1369,2.7977265,-0.43303001,-1.2255868,-1.2234563
1370,2.7996796,-0.44847634,-1.2676647,-1.2175972
1371,2.8016938,-0.46179214,-1.3060142,-1.2138689
1372,2.803769,-0.47244477,-1.33957,-1.2133362
1373,2.805661,-0.47936901,-1.3683321,-1.2085425
1374,2.8076447,-0.48789111,-1.3949639,-1.2053467
1375,2.8096283,-0.48469532,-1.4136059,-1.1994878
1376,2.8117035,-0.48895639,-1.4269217,-1.1973573
1377,2.8135956,-0.48682585,-1.4354439,-1.1936288
1378,2.8156098,-0.4809669,-1.4349113,-1.190433
1379,2.8176239,-0.47670585,-1.4295849,-1.1835088
1380,2.8196991,-0.46658584,-1.423726,-1.1771172
1381,2.8215912,-0.45753109,-1.4109428,-1.1771172
1382,2.8236054,-0.4415521,-1.3901701,-1.1739215
1383,2.8256195,-0.42397526,-1.3688648,-1.1685951
1384,2.8276947,-0.40586576,-1.3432984,-1.160073
1385,2.8295868,-0.3818973,-1.315069,-1.154214
1386,2.8315705,-0.35952675,-1.2873721,-1.149953
1387,2.8335541,-0.3355583,-1.252751,-1.1393003
1388,2.8356293,-0.30786142,-1.2213258,-1.1286477
1389,2.8375824,-0.28176245,-1.1835088,-1.1142666
1390,2.8395356,-0.25566345,-1.1478225,-1.0977551
1391,2.8415192,-0.22743396,-1.1110709,-1.0823087
1392,2.8435944,-0.19813919,-1.0711234,-1.0594054
1393,2.845517,-0.17310548,-1.031176,-1.0418286
1394,2.8475312,-0.14807177,-0.98643488,-1.0194581
1395,2.8495453,-0.12303805,-0.94275904,-0.99655491
1396,2.8516205,-0.093743272,-0.89695269,-0.97365171
1397,2.8535126,-0.064448498,-0.84741789,-0.94861799
1398,2.8554962,-0.033555832,-0.79788309,-0.92944324
1399,2.8575409,0.00053263223,-0.74621773,-0.9038769
1400,2.8596161,0.039947417,-0.69401979,-0.88363689
1401,2.8615082,0.087351687,-0.64341974,-0.86020106
1402,2.8634919,0.13369069,-0.59122175,-0.83783048
1403,2.865506,0.18322548,-0.54008907,-0.81759048
1404,2.8675812,0.24394555,-0.49375007,-0.79575253
1405,2.8695038,0.30093721,-0.45167214,-0.7771104
1406,2.871518,0.36272255,-0.40959418,-0.75580513
1407,2.8735321,0.42717105,-0.37017938,-0.74035877
1408,2.8756073,0.48789111,-0.33502567,-0.71905351
1409,2.8775299,0.55233961,-0.29987195,-0.69987875
1410,2.8795136,0.60986388,-0.26684874,-0.67963874
1411,2.8815277,0.66632295,-0.23648871,-0.65833342
1412,2.8836029,0.72171664,-0.21038973,-0.63489759
1413,2.885495,0.76912093,-0.18588865,-0.61678815
1414,2.8874787,0.8181231,-0.1587244,-0.59281969
1415,2.8894928,0.85807049,-0.13475595,-0.56459016
1416,2.891568,0.89482212,-0.10972224,-0.53582799
1417,2.8934906,0.92251903,-0.085221156,-0.51026165
1418,2.8955048,0.95447695,-0.05965481,-0.47883639
1419,2.8975495,0.97524959,-0.029294772,-0.44634581
1420,2.8995026,0.99762017,0.006924219,-0.41651839
1421,2.9015168,1.0189254,0.046339005,-0.37870151
1422,2.9035004,1.0349044,0.079894833,-0.34194988
1423,2.9055146,1.0428939,0.11132014,-0.30253512
1424,2.9075287,1.0530139,0.14434333,-0.25779399
1425,2.9095124,1.0615361,0.17097494,-0.21038973
1426,2.9115265,1.0684602,0.18855181,-0.15819177
1427,2.9135407,1.0689929,0.19920446,-0.097471699
1428,2.9156159,1.071656,0.19547603,-0.035686359
1429,2.9175385,1.0727214,0.18109496,0.033555832
1430,2.9195221,1.0727214,0.15499598,0.10173275
1431,2.9215058,1.0700581,0.11504856,0.17630127
1432,2.923581,1.0684602,0.064981133,0.25406557
1433,2.9255036,1.0652645,0.0042610578,0.33715621
1434,2.9275177,1.0663297,-0.070840083,0.42077947
1435,2.9295319,1.0599382,-0.16032229,0.51026165
1436,2.9316071,1.0540792,-0.25353295,0.60027653
1437,2.9334992,1.0476876,-0.37017938,0.69295454
1438,2.9354828,1.0418286,-0.49268481,0.78403461
1439,2.9375275,1.031176,-0.62531024,0.8809737
1440,2.9396027,1.0247844,-0.76752305,0.97471696
1441,2.9414948,1.0199907,-0.92145377,1.0689929
1442,2.9434784,1.0162623,-1.0807108,1.1622036
1443,2.9454926,1.015197,-1.2543489,1.2516857
1444,2.9475678,1.0199907,-1.4397049,1.3411679
1445,2.9494904,1.0349044,-1.6309199,1.4311827
1446,2.9515045,1.0556771,-1.8279938,1.5158713
1447,2.9535187,1.0849719,-2.0271983,1.6026903
1448,2.9555939,1.1265172,-2.218946,1.6847157
1449,2.9575165,1.1771172,-2.411226,1.7630126
1450,2.9595002,1.2405005,-2.5944517,1.8429075
1451,2.9615143,1.3124058,-2.7670245,1.9148128
1452,2.9635895,1.397627,-2.9268141,1.9893813
1453,2.9654816,1.4892397,-3.0706248,2.0538299
1454,2.9674652,1.5947009,-3.1947281,2.1193435
1455,2.9694794,1.7097495,-3.2953956,2.1805964
1456,2.9715546,1.8327875,-3.3678336,2.23599
1457,2.9734467,1.9568908,-3.4163032,2.2871227
1458,2.9754608,2.0730047,-3.4296188,2.3329291
1459,2.977475,2.1891184,-3.4248252,2.372344
1460,2.9795502,2.2833943,-3.3902042,2.4043019
1461,2.9814423,2.3446472,-3.3348105,2.4277377
1462,2.9834565,2.3691483,-3.2591765,2.4437168
1463,2.9854401,2.3547671,-3.161705,2.4469125
1464,2.9875153,2.3052323,-3.0525153,2.4362597
1465,2.9894074,2.2248049,-2.9379995,2.4117587
1466,2.991391,2.1305289,-2.8282771,2.3702135
1467,2.9933747,2.0234699,-2.727077,2.3052323
1468,2.9954499,1.9206718,-2.666357,2.2242723
1469,2.997403,1.824798,-2.6359968,2.1252027
1470,2.9993866,1.7411747,-2.6471822,2.0032299
1471,3.0013703,1.6772588,-2.6993802,1.8588865
1472,3.0034455,1.6261262,-2.7904603,1.6879115
1473,3.0053986,1.5792545,-2.9060414,1.4913702
1474,3.0073822,1.530785,-3.0498521,1.2751216
1475,3.0093659,1.4801849,-3.1856732,1.0365024
1476,3.0114411,1.4269217,-3.2911346,0.78936094
1477,3.0133942,1.3800501,-3.3310819,0.5299691
1478,3.0153778,1.325189,-3.2703619,0.25619611
1479,3.017392,1.2548815,-3.0913975,-0.026631612
1480,3.0194672,1.1680624,-2.7819381,-0.3089267
1481,3.0213898,1.0540792,-2.3526366,-0.59281969
1482,3.0233734,0.9038769,-1.7955033,-0.87990844
1483,3.0253571,0.69721556,-1.1345067,-1.1733888
1484,3.0274323,0.45646581,-0.41278997,-1.4519554
1485,3.0293549,0.18162759,0.33342779,-1.7166736
1486,3.0313385,-0.10918961,1.0396981,-1.9558256
1487,3.0333527,-0.37017938,1.6692694,-2.1656826
1488,3.0354279,-0.5997439,2.2205439,-2.338788
1489,3.037381,-0.79575253,2.6716833,-2.4730115
1490,3.0393341,-0.93476957,3.035471,-2.5587652
1491,3.0413483,-1.0396981,3.3135052,-2.5960495
1492,3.0434235,-1.1062771,3.5175033,-2.5875273
1493,3.0453766,-1.139833,3.627758,-2.5342641
1494,3.0473603,-1.1472899,3.6639771,-2.4431841
1495,3.0493439,-1.1456919,3.619236,-2.3116238
1496,3.0514191,-1.1233214,3.5041873,-2.1481059
1497,3.0533722,-1.0929613,3.3321471,-1.9776635
1498,3.0553559,-1.0434265,3.1068437,-1.8077538
1499,3.05737,-0.98004329,2.8501151,-1.6602147
1500,3.0594452,-0.91666007,2.5837989,-1.5441009
1501,3.0613678,-0.84315681,2.3153522,-1.4546186
1502,3.0633515,-0.77018619,2.0586236,-1.3907027
1503,3.0653351,-0.69401979,1.8088191,-1.3470269
1504,3.0674103,-0.61945128,1.5739282,-1.3203954
1505,3.0693329,-0.54967648,1.351288,-1.3065468
1506,3.0713166,-0.4809669,1.1456919,-1.3049489
1507,3.0733307,-0.41172472,0.95234644,-1.3108079
1508,3.0754059,-0.34408042,0.77817571,-1.3257216
1509,3.077359,-0.2806972,0.62424499,-1.3470269
1510,3.0793427,-0.21518342,0.48895639,-1.3704628
1511,3.0813263,-0.16138756,0.376571,-1.4050838
1512,3.0834015,-0.11025487,0.28549087,-1.4391723
1513,3.0853546,-0.077231675,0.21465079,-1.4812502
1514,3.0873383,-0.047404267,0.16458336,-1.5238608
1515,3.0893219,-0.036751624,0.13315806,-1.5691346
1516,3.0913971,-0.040480047,0.11877698,-1.6122777
1517,3.0933503,-0.056991648,0.11824436,-1.6522251
1518,3.0953644,-0.096939065,0.13156016,-1.6895094
1519,3.0973786,-0.15499598,0.15819177,-1.7156084
1520,3.0993622,-0.22583607,0.18748654,-1.7273263
1521,3.1013459,-0.32011196,0.23062976,-1.7278589
1522,3.10336,-0.41705105,0.27324033,-1.7145431
1523,3.1053742,-0.52144694,0.32543829,-1.6884441
1524,3.1073578,-0.62797338,0.376571,-1.6484967
1525,3.1093415,-0.72917354,0.42876893,-1.5968314
1526,3.1113251,-0.82025361,0.47617322,-1.5345135
1527,3.1133087,-0.89961582,0.51718587,-1.4631407
1528,3.1153229,-0.96246642,0.55127436,-1.3827133
1529,3.1173371,-1.0098706,0.5768407,-1.293231
1530,3.1192902,-1.0391655,0.58056915,-1.2032162
1531,3.1213044,-1.0530139,0.56991649,-1.1190603
1532,3.1233185,-1.0508834,0.52943641,-1.0402308
1533,3.1253022,-1.031176,0.46445531,-0.96566224
1534,3.1272858,-0.99868542,0.37603834,-0.90494215
1535,3.1292694,-0.95714009,0.26684874,-0.84688526
1536,3.1312836,-0.90440953,0.15339808,-0.79202414
1537,3.1332672,-0.85487473,0.03781689,-0.74781567
1538,3.1352814,-0.80374205,-0.064981133,-0.70094401
1539,3.1373261,-0.75633776,-0.14647387,-0.65300709
1540,3.1392792,-0.70786822,-0.20985709,-0.60293967
1541,3.1412934,-0.67377979,-0.25566345,-0.54328489
1542,3.143277,-0.63915867,-0.2775014,-0.46871635
1543,3.1452912,-0.60400492,-0.27856666,-0.39361522
1544,3.1473053,-0.56565541,-0.25086978,-0.31212249
1545,3.149289,-0.51292485,-0.1949434,-0.22583607
1546,3.1513031,-0.44634581,-0.10173275,-0.13901702
1547,3.1533173,-0.35952675,0.018109497,-0.054328486
1548,3.1553925,-0.26418558,0.16671389,0.022370555
1549,3.1573151,-0.15073492,0.340352,0.099069595
1550,3.1592987,-0.034088463,0.5118596,0.15819177
1551,3.1613129,0.082557999,0.67857343,0.21784659
1552,3.1633881,0.18588865,0.83783048,0.26897928
1553,3.1653107,0.27324033,0.97311908,0.30360037
1554,3.1672943,0.34141725,1.0892329,0.33023199
1555,3.169278,0.38615838,1.1744541,0.34461305
1556,3.1713532,0.41012681,1.2330436,0.34141725
1557,3.1732758,0.41598576,1.2650015,0.32810146
1558,3.1752594,0.41598576,1.2767195,0.30306774
1559,3.1772736,0.40266997,1.2761868,0.26631612
1560,3.1793488,0.386691,1.2559468,0.22157501
1561,3.1812409,0.36059201,1.2298478,0.1768339
1562,3.1832245,0.32650355,1.1984226,0.13102753
1563,3.1852082,0.29188246,1.1606057,0.091080114
1564,3.1872834,0.2412824,1.1217234,0.06018744
1565,3.189206,0.19014971,1.0780476,0.041012682
1566,3.1912201,0.13369069,1.031176,0.028762139
1567,3.1932343,0.067111664,0.984837,0.021837922
1568,3.1953095,-0.0010652645,0.93370432,0.027696876
1569,3.1972321,-0.069774821,0.8809737,0.042077947
1570,3.1992157,-0.13848437,0.82717782,0.06178534
1571,3.2012299,-0.20026971,0.77284938,0.09054748
1572,3.2033051,-0.2625877,0.72171664,0.1272991
1573,3.2051972,-0.31904671,0.66951871,0.16671389
1574,3.2071808,-0.37071204,0.62317973,0.21198763
1575,3.2091645,-0.41918156,0.5816344,0.25566345
1576,3.2112397,-0.46392268,0.54328489,0.31052458
1577,3.2131623,-0.5044027,0.51505536,0.36591834
1578,3.2151459,-0.53955644,0.49215218,0.42077947
1579,3.2171906,-0.56938386,0.47990164,0.47670585
1580,3.2192353,-0.59601545,0.47670585,0.52943641
1581,3.2211274,-0.61678815,0.48895639,0.58056915
1582,3.2231415,-0.63543028,0.51132691,0.63010395
1583,3.2251557,-0.6492787,0.54914385,0.67910612
1584,3.2272309,-0.65833342,0.60453761,0.73183668
1585,3.229123,-0.66525763,0.67377979,0.7819041
1586,3.2311371,-0.67164922,0.74941355,0.82824314
1587,3.2331208,-0.67111659,0.83889574,0.88150632
1588,3.235196,-0.67218184,0.93317169,0.92944324
1589,3.2371491,-0.66898608,1.0343717,0.97791278
1590,3.2391327,-0.66898608,1.1366372,1.0231866
1591,3.2411164,-0.66579026,1.2394352,1.0700581
1592,3.2431916,-0.66525763,1.3374395,1.1121361
1593,3.2451142,-0.66525763,1.4274544,1.149953
1594,3.2471283,-0.66792083,1.5169365,1.1840415
1595,3.249112,-0.67058396,1.6058862,1.2159994
1596,3.2511872,-0.67910612,1.685781,1.2463595
1597,3.2530793,-0.68816084,1.7587516,1.2735237
1598,3.2550629,-0.69668293,1.8274611,1.2974921
1599,3.2571076,-0.70733559,1.8919097,1.3187973
1600,3.2592133,-0.72118402,1.9489013,1.3401027
1601,3.2611054,-0.73663038,2.0005667,1.3544837
1602,3.263089,-0.7504788,2.0463731,1.3720607
1603,3.2650727,-0.76539248,2.0879183,1.3848438
1604,3.2671479,-0.78030622,2.12467,1.3970944
1605,3.2690705,-0.79308939,2.1539648,1.4109428
1606,3.2710541,-0.8085357,2.1779332,1.4146712
1607,3.2730683,-0.81865573,2.1976407,1.4210628
1608,3.2751435,-0.82984102,2.2136195,1.4258565
1609,3.2770966,-0.83996105,2.2280006,1.4274544
1610,3.2790497,-0.84901577,2.2402511,1.4269217
1611,3.2810639,-0.85487473,2.2455776,1.4258565
1612,3.2831391,-0.85700524,2.2530344,1.4215955
1613,3.2850617,-0.85860318,2.2551649,1.4173343
1614,3.2870453,-0.85807049,2.253567,1.406149
1615,3.289029,-0.85540736,2.2434468,1.3981596
1616,3.2911042,-0.85114628,2.231729,1.3891048
1617,3.2930268,-0.8447547,2.2152174,1.3789848
1618,3.2950104,-0.83783048,2.1885858,1.3672669
1619,3.2970551,-0.82771051,2.15503,1.3566142
1620,3.2991303,-0.8133294,2.1177456,1.3448963
1621,3.3010224,-0.80107886,2.0708742,1.335309
1622,3.303006,-0.78296936,2.0176108,1.3278521
1623,3.3050202,-0.77125144,1.9579561,1.3225259
1624,3.3070954,-0.75580513,1.8951055,1.3124058
1625,3.309018,-0.73663038,1.830657,1.3102753
1626,3.3110321,-0.71532506,1.7560885,1.3086774
1627,3.3130463,-0.69508505,1.6777915,1.3044163
1628,3.3151215,-0.67697555,1.5978967,1.3044163
1629,3.3170441,-0.65353972,1.5126755,1.3028184
1630,3.3190277,-0.63223445,1.4178669,1.3006879
1631,3.3210419,-0.61092919,1.3214606,1.3028184
1632,3.3230866,-0.58855861,1.2154667,1.3054816
1633,3.3250092,-0.56991649,1.1052119,1.3102753
1634,3.3269928,-0.55074173,0.99282646,1.315069
1635,3.329007,-0.52570802,0.87617999,1.3161342
1636,3.3310822,-0.50653327,0.75527251,1.3214606
1637,3.3329743,-0.48522797,0.63170183,1.3299826
1638,3.3349579,-0.46019423,0.50653327,1.3385048
1639,3.3370026,-0.43729106,0.38136467,1.3443637
1640,3.3390778,-0.41278997,0.25086978,1.3544837
1641,3.3409699,-0.38509309,0.1272991,1.3624732
1642,3.3429535,-0.35313517,0.0010652645,1.3720607
1643,3.3449677,-0.32490566,-0.12516858,1.3821807
1644,3.3470429,-0.29348037,-0.25726137,1.3912354
1645,3.3489655,-0.26205507,-0.38828889,1.4072144
1646,3.3509796,-0.22956449,-0.5273059,1.4183996
1647,3.3529938,-0.1949434,-0.67537767,1.4301175
1648,3.355069,-0.16458336,-0.82238418,1.442368
1649,3.3569916,-0.13528858,-0.97738016,1.4572818
1650,3.3589447,-0.10546118,-1.1446266,1.468467
1651,3.3609589,-0.077231675,-1.3124058,1.4796523
1652,3.3630341,-0.051132694,-1.4828482,1.4913702
1653,3.3649262,-0.031957932,-1.655421,1.5030881
1654,3.3669098,-0.012783173,-1.8279938,1.5158713
1655,3.368924,0.0042610578,-1.9973708,1.5243934
1656,3.3709992,0.019707393,-2.1656826,1.5345135
1657,3.3729218,0.032490566,-2.3244071,1.5478293
1658,3.3749054,0.041012682,-2.4746094,1.5584819
1659,3.3769501,0.050600063,-2.6168222,1.5696672
1660,3.3790253,0.059122179,-2.7515781,1.5819178
1661,3.3809174,0.067644291,-2.8751488,1.5936357
1662,3.382901,0.07456851,-2.9870014,1.6053536
1663,3.3849152,0.079894833,-3.0913975,1.6186694
1664,3.3869904,0.086819053,-3.1808796,1.6335831
1665,3.388913,0.09054748,-3.2650356,1.6421051
1666,3.3909272,0.095341168,-3.3374736,1.6548884
1667,3.3929108,0.093743272,-3.4003241,1.6698021
1668,3.394986,0.09640643,-3.4503915,1.6852484
1669,3.3969391,0.097471699,-3.490339,1.6980315
1670,3.3989228,0.10333065,-3.5228295,1.71188
1671,3.4009064,0.10918961,-3.5489285,1.7204021
1672,3.4029816,0.11664646,-3.5649076,1.7326527
1673,3.4049042,0.12303805,-3.5782232,1.748099
1674,3.4069184,0.13102753,-3.584615,1.7560885
1675,3.4089325,0.14008227,-3.584615,1.7720674
1676,3.4110077,0.15233281,-3.581419,1.784318
1677,3.4129303,0.1635181,-3.5744948,1.7928401
1678,3.414914,0.17789917,-3.562777,1.798699
1679,3.4169281,0.1933455,-3.5499938,1.8120148
1680,3.4190033,0.20453078,-3.5372107,1.8178738
1681,3.4209259,0.2231729,-3.520699,1.8226675
1682,3.4229096,0.23968451,-3.5025895,1.8269285
1683,3.4248932,0.25672874,-3.4818168,1.8322549
1684,3.4269684,0.27696875,-3.4626422,1.8333201
1685,3.428891,0.29667616,-3.4376085,1.834918
1686,3.4308747,0.31691617,-3.41364,1.8354506
1687,3.4328888,0.34088463,-3.3854105,1.8370485
1688,3.434964,0.36218992,-3.3550503,1.8359833
1689,3.4369171,0.38722363,-3.3172336,1.8290591
1690,3.4388703,0.4133226,-3.2751555,1.8216022
1691,3.4408844,0.44368264,-3.235208,1.8173412
1692,3.4429596,0.47084689,-3.1840754,1.7992316
1693,3.4449128,0.49854377,-3.1329427,1.7837853
1694,3.4468964,0.53423011,-3.0700922,1.7667412
1695,3.44888,0.57044911,-3.0029805,1.7470337
1696,3.4509552,0.60720074,-2.9316077,1.726261
1697,3.4528778,0.64661551,-2.8570392,1.7006947
1698,3.4548615,0.69029135,-2.773416,1.6745957
1699,3.4568756,0.73290193,-2.6913908,1.6442357
1700,3.4589508,0.7771104,-2.6003106,1.6138756
1701,3.4608429,0.8266452,-2.4948494,1.5792545
1702,3.4628266,0.88896316,-2.360626,1.5462314
1703,3.4648102,0.95980328,-2.1987059,1.504686
1704,3.4668854,1.0487529,-2.0026972,1.4652712
1705,3.468808,1.1515509,-1.7715348,1.4221281
1706,3.4708222,1.2703278,-1.506284,1.3784522
1707,3.4728363,1.401888,-1.2074772,1.3315805
1708,3.4749115,1.5483619,-0.87298423,1.2868395
1709,3.4768647,1.7028252,-0.51931643,1.2479573
1710,3.4788178,1.8551581,-0.14807177,1.2090752
1711,3.4808319,2.0117519,0.22050974,1.1787151
1712,3.4829071,2.1518342,0.57257962,1.149953
1713,3.4848297,2.2700787,0.88257158,1.1275824
1714,3.4868134,2.3739419,1.1574098,1.1089402
1715,3.488797,2.4533041,1.3896375,1.0945592
1716,3.4908722,2.5150893,1.5819178,1.087635
1717,3.4928253,2.5550368,1.7310548,1.0812434
1718,3.4947785,2.5790052,1.8359833,1.0839065
1719,3.4967926,2.5837989,1.9004318,1.0881677
1720,3.4988678,2.5768747,1.9275961,1.0929613
1721,3.5007599,2.5614283,1.9201392,1.1009508
1722,3.5027741,2.5310683,1.8881812,1.1089402
1723,3.5047577,2.4911208,1.8269285,1.1233214
1724,3.5068329,2.4501083,1.7470337,1.1382351
1725,3.5087555,2.4037693,1.6511599,1.1531488
1726,3.5107086,2.3478429,1.5472966,1.1707256
1727,3.5126923,2.2945797,1.4349113,1.186172
1728,3.5147675,2.2461102,1.3140037,1.2058793
1729,3.5167511,2.1901836,1.1936288,1.2213258
1730,3.5187043,2.1438446,1.0807108,1.2373047
1731,3.5206879,2.086853,0.97684753,1.2522184
1732,3.5227631,2.047971,0.8809737,1.2650015
1733,3.5247162,2.014415,0.79894835,1.2772521
1734,3.5266999,1.984055,0.74035877,1.2836437
1735,3.5286835,1.9664782,0.70200926,1.2831111
1736,3.5307587,1.959554,0.69668293,1.2825783
1737,3.5327118,1.965413,0.72224933,1.27885
1738,3.5346955,1.9915119,0.77178413,1.2708606
1739,3.5367096,2.0202739,0.87298423,1.2596753
1740,3.5387848,2.0703416,1.0066749,1.242631
1741,3.5407074,2.1331921,1.1733888,1.2314457
1742,3.5426911,2.1997712,1.3768543,1.2138689
1743,3.5446747,2.2743397,1.6037556,1.1968247
1744,3.5467499,2.3568976,1.856756,1.1819109
1745,3.5486725,2.4474452,2.1193435,1.1712582
1746,3.5506562,2.5278726,2.3835292,1.1632688
1747,3.5526703,2.6019084,2.6423886,1.1616709
1748,3.5547455,2.6594326,2.8788772,1.1552793
1749,3.5566986,2.700978,3.0839405,1.1515509
1750,3.5586518,2.7164245,3.2613072,1.1408982
1751,3.5606659,2.727077,3.4115095,1.1233214
1752,3.5627411,2.7190876,3.5329497,1.1004182
1753,3.5646637,2.7025759,3.6362803,1.0753845
1754,3.5666474,2.6732812,3.7252297,1.0423613
1755,3.568631,2.6322684,3.8035266,1.0040118
1756,3.5707062,2.590723,3.8775625,0.95607483
1757,3.5726288,2.5481126,3.94787,0.90547478
1758,3.5746125,2.4937842,4.0213733,0.84581995
1759,3.5766266,2.4421189,4.1023335,0.78509992
1760,3.5787018,2.3888555,4.188087,0.72491246
1761,3.5805939,2.3329291,4.2839608,0.65939867
1762,3.5825775,2.2775354,4.3947487,0.59548283
1763,3.5845917,2.2226744,4.5193844,0.5299691
1764,3.5866669,2.163552,4.6637278,0.46392268
1765,3.5885895,2.1028321,4.8192563,0.40586576
1766,3.5906037,2.0415792,4.9870358,0.35100463
1767,3.5925873,1.9760655,5.1638694,0.29454562
1768,3.5946625,1.901497,5.3460298,0.24873926
1769,3.5966156,1.8189391,5.5308533,0.20879184
1770,3.5985993,1.7342505,5.7151437,0.17630127
1771,3.6005829,1.6383767,5.8834558,0.14807177
1772,3.6026886,1.5302523,6.0448432,0.13049489
1773,3.6045807,1.4152038,6.1859908,0.11611383
1774,3.6065644,1.2926984,6.3143549,0.10918961
1775,3.608548,1.1590078,6.4187508,0.10333065
1776,3.6106232,1.0194581,6.5050373,0.10599381
1777,3.6125458,0.87085372,6.5684204,0.10812435
1778,3.6145295,0.71958613,6.6104984,0.11291803
1779,3.6165741,0.56139439,6.6397934,0.11345066
1780,3.6186493,0.4000068,6.6504459,0.11664646
1781,3.6205414,0.23542345,6.6531091,0.11451593
1782,3.6225251,0.070307456,6.6408587,0.11291803
1783,3.6245392,-0.09640643,6.6142268,0.10759171
1784,3.6266144,-0.25885928,6.5801387,0.09960223
1785,3.628537,-0.42131209,6.5428543,0.085753791
1786,3.6305207,-0.58110178,6.4975805,0.069774821
1787,3.6325043,-0.73183668,6.4469805,0.050067428
1788,3.6345795,-0.8809737,6.4006414,0.026631612
1789,3.6365326,-1.0210559,6.3495088,0.0026631611
1790,3.6384857,-1.1526161,6.304235,-0.03089267
1791,3.6404694,-1.2745889,6.2712116,-0.064448498
1792,3.6425446,-1.3880396,6.2397866,-0.10386328
1793,3.6444672,-1.4871092,6.2286015,-0.14860439
1794,3.6464814,-1.5723304,6.2339277,-0.19867182
1795,3.6484955,-1.6447684,6.2653527,-0.25140241
1796,3.6505402,-1.7001621,6.3191485,-0.30999196
1797,3.6524628,-1.7390442,6.4038372,-0.37284255
1798,3.6544464,-1.758219,6.5178204,-0.43675843
1799,3.6564911,-1.7534252,6.6536417,-0.5091964
1800,3.6585358,-1.7369137,6.8022461,-0.57577544
1801,3.6604279,-1.7012273,6.9460568,-0.64714813
1802,3.662442,-1.6516925,7.0760193,-0.716923
1803,3.6644562,-1.5888419,7.1836109,-0.78296936
1804,3.6665314,-1.5084145,7.2597771,-0.84795052
1805,3.668454,-1.4152038,7.2906699,-0.90973586
1806,3.6704377,-1.2948289,7.2810826,-0.97045594
1807,3.6724213,-1.1536814,7.2182322,-1.0306433
1808,3.674527,-0.9715212,7.0845413,-1.0902982
1809,3.6764496,-0.75527251,6.8698907,-1.149953
1810,3.6784333,-0.49321744,6.5481806,-1.2016183
1811,3.6804474,-0.19867182,6.0783992,-1.2559468
1812,3.6824921,0.10066749,5.4775896,-1.3081448
1813,3.6844147,0.36165729,4.7936902,-1.3635385
1814,3.6863983,0.57364494,4.0522661,-1.4141386
1815,3.6884125,0.71905351,3.2874062,-1.4636734
1816,3.6904877,0.80693781,2.5188179,-1.5164039
1817,3.6923798,0.85487473,1.7630126,-1.5739282
1818,3.694394,0.85807049,1.0471549,-1.6357136
1819,3.6964081,0.83410209,0.39574575,-1.7044232
1820,3.6984833,0.75953358,-0.43356264,-1.8093517
1821,3.7003754,0.72917354,-0.65886605,-1.8461033
1822,3.7023896,0.66579026,-1.037035,-1.9201392
1823,3.7043732,0.58642811,-1.3022858,-1.9899141
1824,3.7064484,0.50014168,-1.4658039,-2.056493
1825,3.708371,0.40053943,-1.5297197,-2.1161478
1826,3.7103546,0.2806972,-1.5169365,-2.1678131
1827,3.7123688,0.13369069,-1.4471618,-2.2077606
1828,3.7144745,-0.14168017,-1.3219932,-2.2423816
1829,3.7163971,-0.2428803,-1.284709,-2.2466428
1830,3.7183503,-0.46445531,-1.2362394,-2.2556975
1831,3.7203644,-0.69987875,-1.230913,-2.253567
1832,3.7224396,-1.0578076,-1.315069,-2.2391858
1833,3.7243927,-1.1781825,-1.3688648,-2.2343922
1834,3.7263764,-1.4130733,-1.500425,-2.2269354
1835,3.72836,-1.635181,-1.6602147,-2.2248049
1836,3.7304352,-1.933455,-1.9270633,-2.2429142
1837,3.7323883,-2.0197413,-2.0213394,-2.2572954
1838,3.7344025,-2.1832595,-2.2104237,-2.2892532
1839,3.7363861,-2.3222766,-2.3867249,-2.3323965
1840,3.7384613,-2.4927189,-2.63866,-2.4170849
1841,3.7403839,-2.5438516,-2.7169571,-2.4501083
1842,3.7423981,-2.6269422,-2.8613002,-2.5236115
1843,3.7443817,-2.7079022,-3.0530479,-2.6519759
1844,3.7464569,-2.7398603,-3.1675639,-2.7457192
1845,3.7483795,-2.7585022,-3.2740903,-2.8437235
1846,3.7503632,-2.7643614,-3.3236251,-2.8948562
1847,3.7523774,-2.7664919,-3.4663706,-3.0525153
1848,3.7544525,-2.7579696,-3.5505264,-3.1574438
1849,3.7564057,-2.7462518,-3.6362803,-3.2607746
1850,3.7583893,-2.7297401,-3.7151098,-3.3657031
1851,3.760373,-2.7116306,-3.7923415,-3.4690337
1852,3.7624482,-2.6903255,-3.8695731,-3.572897
1853,3.7643708,-2.676477,-3.9409459,-3.6666403
1854,3.7663849,-2.6647589,-4.0096555,-3.7625141
1855,3.7683991,-2.6535738,-4.0757017,-3.8482678
1856,3.7704438,-2.6445191,-4.1374869,-3.9244342
1857,3.7723664,-2.6402578,-4.1907506,-4.0043292
1858,3.7743805,-2.6296053,-4.238687,-4.0698428
1859,3.7763947,-2.6274748,-4.2828956,-4.1385522
1860,3.7784699,-2.6226811,-4.3201799,-4.194479
1861,3.780362,-2.6221485,-4.3537359,-4.2397528
1862,3.7823761,-2.6210833,-4.3851609,-4.2839608
1863,3.7843598,-2.6237464,-4.4112601,-4.3212452
1864,3.786435,-2.6290727,-4.4373589,-4.3500075
1865,3.7883576,-2.6375947,-4.4544034,-4.3697147
1866,3.7903412,-2.6487801,-4.4677191,-4.379302
1867,3.7923249,-2.6679549,-4.4602623,-4.379302
1868,3.7944001,-2.6940539,-4.4384246,-4.3739758
1869,3.7963532,-2.727077,-4.3915529,-4.3595948
1870,3.7983368,-2.7622306,-4.3340282,-4.3281693
1871,3.8003205,-2.7979171,-4.2546663,-4.2946138
1872,3.8023957,-2.8314729,-4.1454768,-4.2461443
1873,3.8043488,-2.8628981,-4.0139165,-4.1907506
1874,3.8063324,-2.8858013,-3.8498657,-4.1209755
1875,3.8083161,-2.9044435,-3.6479981,-4.0421462
1876,3.8103913,-2.9166942,-3.4338801,-3.9484026
1877,3.8123444,-2.9246836,-3.2155008,-3.8488004
1878,3.814328,-2.9214878,-3.0067089,-3.733752
1879,3.8163422,-2.9049761,-2.8218856,-3.6064527
1880,3.8184174,-2.8698225,-2.6589,-3.4621096
1881,3.82034,-2.8234835,-2.5305357,-3.3071134
1882,3.8223542,-2.7510455,-2.4410534,-3.1388018
1883,3.8243073,-2.6514432,-2.3888555,-2.948652
1884,3.8263825,-2.5262747,-2.3616912,-2.7297401
1885,3.8283051,-2.3787355,-2.3398533,-2.4857945
1886,3.8302887,-2.2173479,-2.295645,-2.2306638
1887,3.8323029,-2.0485036,-2.2045648,-1.9829898
1888,3.8343781,-1.8658108,-2.086853,-1.7374463
1889,3.8363312,-1.6852484,-1.9936424,-1.5020229
1890,3.8382843,-1.5089471,-1.9132149,-1.2740563
1891,3.8402985,-1.3214606,-1.8450381,-1.0530139
1892,3.8423737,-1.1318434,-1.7608821,-0.83836311
1893,3.8442963,-0.93956327,-1.6799221,-0.63756078
1894,3.8462799,-0.7456851,-1.5994946,-0.44315001
1895,3.8482636,-0.54861122,-1.5318503,-0.26418558
1896,3.8503388,-0.35420042,-1.468467,-0.098004326
1897,3.8522614,-0.16405073,-1.3997575,0.062317971
1898,3.854245,0.013848438,-1.3299826,0.20186761
1899,3.8562897,0.18588865,-1.25861,0.32863408
1900,3.8583649,0.3536678,-1.1877699,0.43782368
1901,3.860257,0.51079428,-1.1217234,0.53636068
1902,3.8622406,0.66099662,-1.0599382,0.61678815
1903,3.8642243,0.80427468,-0.99975067,0.68283451
1904,3.8662995,0.93956327,-0.94222641,0.73982614
1905,3.8682221,1.0657971,-0.88949585,0.7866978
1906,3.8702362,1.1867046,-0.84422207,0.8314389
1907,3.8722199,1.2953615,-0.80054623,0.86339682
1908,3.8742951,1.4002901,-0.76059884,0.89162636
1909,3.8762482,1.4956313,-0.72331458,0.91559482
1910,3.8782318,1.5787219,-0.69135666,0.93743271
1911,3.8802155,1.653823,-0.6625945,0.95607483
1912,3.8822907,1.7193369,-0.64128917,0.97098857
1913,3.8842133,1.7773937,-0.62051654,0.98004329
1914,3.8862274,1.8210696,-0.60507023,0.98643488
1915,3.8882416,1.8615496,-0.59441757,0.99069595
1916,3.8902863,1.8892465,-0.5901565,0.99442434
1917,3.8922089,1.907356,-0.58429754,0.98856544
1918,3.8942231,1.9196066,-0.59175438,0.98323911
1919,3.8962677,1.9201392,-0.60240704,0.96992326
1920,3.8983429,1.9142802,-0.61838603,0.95927066
1921,3.900235,1.9041603,-0.64182186,0.94542223
1922,3.9022187,1.8833876,-0.66845345,0.93104112
1923,3.9042328,1.8540928,-0.69774824,0.91026849
1924,3.906308,1.8263959,-0.73290193,0.88789791
1925,3.9082306,1.788579,-0.77391464,0.86073369
1926,3.9102143,1.7422401,-0.81865573,0.83356941
1927,3.9121979,1.6974989,-0.8676579,0.80480731
1928,3.9142731,1.6479641,-0.9171927,0.76912093
1929,3.9162567,1.5904398,-0.96779275,0.7323693
1930,3.9182099,1.5329156,-1.0226538,0.69561768
1931,3.9201935,1.4727281,-1.0759171,0.65460503
1932,3.9222687,1.407747,-1.133974,0.60986388
1933,3.9242218,1.3432984,-1.1941614,0.56512278
1934,3.926236,1.2761868,-1.252751,0.51505536
1935,3.9282196,1.2106731,-1.3145363,0.4676511
1936,3.9302338,1.1430287,-1.375789,0.42184472
1937,3.932248,1.0753845,-1.4375744,0.37497309
1938,3.9342011,1.0072075,-1.4940335,0.32490566
1939,3.9362152,0.93849796,-1.5558188,0.28016454
1940,3.9381989,0.87085372,-1.6149409,0.23329292
1941,3.940213,0.80480731,-1.6692694,0.18748654
1942,3.9421967,0.74089146,-1.7241305,0.1470065
1943,3.9441803,0.67963874,-1.7805896,0.10173275
1944,3.9461945,0.61519021,-1.8333201,0.062850602
1945,3.9481781,0.55713332,-1.8833876,0.031425301
1946,3.9501923,0.50014168,-1.9313245,-0.0047936901
1947,3.9522065,0.44847634,-1.969674,-0.036751624
1948,3.9542511,0.40107206,-2.0037625,-0.067644291
1949,3.9562043,0.35526571,-2.0383835,-0.099069595
1950,3.9581879,0.31265512,-2.0650151,-0.12836437
1951,3.9602021,0.2727077,-2.0916467,-0.15393071
1952,3.9622467,0.23808661,-2.1118867,-0.18482338
1953,3.9641693,0.2050634,-2.1294637,-0.20985709
1954,3.966153,0.17257284,-2.143312,-0.23648871
1955,3.9681671,0.14594123,-2.1481059,-0.26152241
1956,3.9702423,0.12303805,-2.150769,-0.2860235
1957,3.9721344,0.10599381,-2.1454427,-0.30999196
1958,3.9741181,0.09267801,-2.1395836,-0.33342779
1959,3.9761628,0.081492729,-2.1283984,-0.35153726
1960,3.9782379,0.076699041,-2.1108215,-0.37337518
1961,3.98013,0.078829572,-2.0820594,-0.39041942
1962,3.9821137,0.10120013,-2.0192087,-0.4079963
1963,3.9841278,0.16777915,-1.8892465,-0.42131209
1964,3.986203,0.28122982,-1.6788567,-0.42344263
1965,3.9881256,0.43516052,-1.4045511,-0.42397526
1966,3.9901093,0.61678815,-1.0823087,-0.41598576
1967,3.9920929,0.81226414,-0.72810823,-0.4079963
1968,3.9941681,1.010936,-0.37071204,-0.39414784
1969,3.9961212,1.2026836,-0.026631612,-0.37497309
1970,3.9980744,1.3731259,0.28389299,-0.36165729
1971,4.000058,1.520665,0.55979645,-0.34567833
1972,4.0021332,1.6474315,0.80107886,-0.33076462
1973,4.0040558,1.748099,1.0024139,-0.31851408
1974,4.00607,1.8290591,1.1659319,-0.30732879
1975,4.0080536,1.8887138,1.3012205,-0.29774141
1976,4.0101288,1.9275961,1.4029533,-0.28868666
1977,4.0120819,1.9531624,1.4849787,-0.27909929
1978,4.0140961,1.963815,1.5387745,-0.27430561
1979,4.0161103,1.9611518,1.5744609,-0.267914
1980,4.0180939,1.9499665,1.5909724,-0.26152241
1981,4.0201081,1.9275961,1.5968314,-0.25513083
1982,4.0221222,1.8998991,1.5893745,-0.24767399
1983,4.0241364,1.866876,1.572863,-0.24501082
1984,4.02612,1.8311896,1.5563514,-0.23915187
1985,4.0281037,1.7933728,1.5329156,-0.23062976
1986,4.0300873,1.7598169,1.5164039,-0.2231729
1987,4.032071,1.722,1.5020229,-0.21624869
1988,4.0340851,1.6927053,1.4950987,-0.2050634
1989,4.0360993,1.6644757,1.4988271,-0.19760656
1990,4.0380524,1.6437031,1.5164039,-0.18482338
1991,4.0400666,1.6223978,1.5387745,-0.17204021
1992,4.0420807,1.6026903,1.5712651,-0.15925704
1993,4.0440644,1.5861788,1.6080167,-0.14434333
1994,4.046048,1.5680692,1.6500946,-0.128897
1995,4.0480316,1.5478293,1.6873789,-0.11504856
1996,4.0500458,1.5211977,1.7246631,-0.10333065
1997,4.05206,1.4919028,1.7491642,-0.087884314
1998,4.0540436,1.459945,1.7720674,-0.075633779
1999,4.0560578,1.4205302,1.7795243,-0.063383237
2000,4.0581635,1.3741912,1.7757958,-0.052197959
2001,4.0600251,1.325189,1.7614148,-0.043143209
2002,4.0620392,1.2729911,1.7326527,-0.034088463
2003,4.0640229,1.2149341,1.6916399,-0.02609898
2004,4.0660981,1.1526161,1.6367788,-0.022370555
2005,4.0680207,1.0865698,1.5680692,-0.012250541
2006,4.0700043,1.0173275,1.4865766,-0.0058589545
2007,4.0719879,0.94595486,1.3949639,0.0037284256
2008,4.0740631,0.87191898,1.2921658,0.0074568512
2009,4.0760163,0.79575253,1.1797804,0.014913702
2010,4.0779694,0.72065139,1.0546118,0.015978966
2011,4.0799836,0.64768076,0.9171927,0.021837922
2012,4.0820587,0.57364494,0.77551252,0.026631612
2013,4.0840119,0.50173956,0.62531024,0.03089267
2014,4.0859955,0.43303001,0.46871635,0.033555832
2015,4.0879792,0.36538571,0.30732879,0.038882151
2016,4.0900544,0.30466563,0.14487597,0.039414786
2017,4.0920075,0.24714136,-0.020772656,0.039414786
2018,4.0939606,0.19228023,-0.18801917,0.042077947
2019,4.0959748,0.1438107,-0.35206991,0.041545313
2020,4.09805,0.10120013,-0.51718587,0.042077947
2021,4.099942,0.061252706,-0.68017137,0.042077947
2022,4.1019257,0.025566347,-0.83569998,0.039414786
2023,4.1039093,-0.00053263223,-0.99229383,0.041545313
2024,4.1059845,-0.023968451,-1.1382351,0.040480047
2025,4.1079071,-0.03834952,-1.2852416,0.043143209
2026,4.1099213,-0.052197959,-1.423726,0.046339005
2027,4.1119355,-0.055926383,-1.5606124,0.049534798
2028,4.1140107,-0.053795855,-1.6873789,0.055926383
2029,4.1159333,-0.047936901,-1.8152106,0.063383237
2030,4.1179169,-0.034088463,-1.9302592,0.071372718
2031,4.1199311,-0.011717909,-2.0399814,0.080427468
2032,4.1219757,0.012783173,-2.1438446,0.092145376
2033,4.1238983,0.042077947,-2.2381206,0.10226539
2034,4.1259125,0.079362199,-2.3249397,0.1123854
2035,4.1278962,0.12037488,-2.4048345,0.12410331
2036,4.1299713,0.16458336,-2.4756746,0.13209279
2037,4.131894,0.20879184,-2.5385251,0.13795175
2038,4.1338776,0.26045716,-2.593919,0.14114754
2039,4.1358918,0.31372038,-2.6381273,0.14274544
2040,4.137967,0.36538571,-2.6770096,0.14753912
2041,4.139859,0.4181163,-2.7031085,0.14487597
2042,4.1418427,0.47244477,-2.7196202,0.14487597
2043,4.1438568,0.52517539,-2.7265444,0.14168017
2044,4.145932,0.57843858,-2.722816,0.13528858
2045,4.1478546,0.63170183,-2.7100327,0.1272991
2046,4.1498688,0.680704,-2.6887274,0.12250541
2047,4.151883,0.72651035,-2.6573021,0.11451593
2048,4.1539582,0.76912093,-2.6194854,0.10386328
2049,4.1558808,0.80533993,-2.5774074,0.09640643
2050,4.1578644,0.8362326,-2.5289378,0.087884314
2051,4.1598786,0.86020106,-2.4831314,0.07456851
2052,4.1619538,0.87777793,-2.4341292,0.062850602
2053,4.1638459,0.88789791,-2.3883228,0.050600063
2054,4.1658295,0.89002848,-2.3377228,0.041012682
2055,4.1678437,0.8857674,-2.2908511,0.029827405
2056,4.1699189,0.87617999,-2.2429142,0.021837922
2057,4.1718415,0.86020106,-2.1955101,0.011717909
2058,4.1738251,0.83303678,-2.1539648,0.00053263223
2059,4.1758698,0.8026768,-2.1140172,-0.0090547483
2060,4.1779145,0.7685883,-2.0756679,-0.018642128
2061,4.1798371,0.72597772,-2.0410466,-0.028762139
2062,4.1818512,0.67644292,-2.014415,-0.037284255
2063,4.1838654,0.62211442,-1.9936424,-0.046871636
2064,4.1859406,0.5635249,-1.9856529,-0.056459017
2065,4.1878632,0.49321744,-1.9872508,-0.062317971
2066,4.1898468,0.42131209,-2.0010993,-0.071372718
2067,4.1918305,0.34248254,-2.0287962,-0.082025364
2068,4.1939057,0.26098979,-2.0719395,-0.091080114
2069,4.1958588,0.17310548,-2.1283984,-0.10173275
2070,4.1978119,0.084155895,-2.2040322,-0.11504856
2071,4.1997956,-0.010652645,-2.2913837,-0.12836437
2072,4.2018708,-0.10333065,-2.3968451,-0.14647387
2073,4.2037934,-0.19813919,-2.5118935,-0.1635181
2074,4.2058075,-0.29188246,-2.6381273,-0.17843179
2075,4.2077912,-0.38509309,-2.7766118,-0.19654129
2076,4.2098664,-0.47723848,-2.9209552,-0.21465079
2077,4.211789,-0.56831861,-3.0722227,-0.23489082
2078,4.2138031,-0.65726817,-3.2213597,-0.25513083
2079,4.2158173,-0.74355459,-3.3742251,-0.27217507
2080,4.2178925,-0.82238418,-3.5260253,-0.29241508
2081,4.2197846,-0.90281165,-3.6751623,-0.31105721
2082,4.2217987,-0.97524959,-3.8195057,-0.32650355
2083,4.2238129,-1.0444918,-3.9670448,-0.33981937
2084,4.2258576,-1.1110709,-4.1049967,-0.35260254
2085,4.2277802,-1.1723236,-4.2397528,-0.36432046
2086,4.2297638,-1.2287825,-4.3686495,-0.37337518
2087,4.2317475,-1.2857742,-4.4911551,-0.3818973
2088,4.2338227,-1.3363743,-4.6093993,-0.39095205
2089,4.2358063,-1.3811153,-4.7207193,-0.39521313
2090,4.2377594,-1.4210628,-4.8267131,-0.39734364
2091,4.2397431,-1.4588797,-4.9236522,-0.4048005
2092,4.2418183,-1.4929681,-5.0147324,-0.40586576
2093,4.2437714,-1.5233282,-5.1020842,-0.40852892
2094,4.2457856,-1.5451661,-5.1777177,-0.4133226
2095,4.2477997,-1.5627429,-5.2437644,-0.41705105
2096,4.2497834,-1.577124,-5.2996907,-0.42077947
2097,4.251767,-1.5861788,-5.3465624,-0.42184472
2098,4.2537812,-1.5883093,-5.3817163,-0.42823631
2099,4.2557953,-1.5840483,-5.4072824,-0.43303001
2100,4.2578705,-1.5739282,-5.4158044,-0.43942159
2101,4.2597626,-1.551025,-5.4142065,-0.45007423
2102,4.2617768,-1.5126755,-5.3854446,-0.45380265
2103,4.2637909,-1.4503576,-5.3204632,-0.47031426
2104,4.2658356,-1.3603427,-5.2176652,-0.49002165
2105,4.2677582,-1.2357068,-5.075985,-0.51505536
2106,4.2697419,-1.0823087,-4.8948903,-0.55127436
2107,4.2717255,-0.9038769,-4.6770434,-0.59921128
2108,4.2738007,-0.70094401,-4.4304347,-0.64768076
2109,4.2757538,-0.48895639,-4.1673145,-0.70147663
2110,4.2777375,-0.27537087,-3.8935416,-0.75260931
2111,4.2797211,-0.070307456,-3.623497,-0.79788309
2112,4.2817963,0.11984225,-3.3609095,-0.83516735
2113,4.2837494,0.29614353,-3.1121702,-0.86499476
2114,4.2857331,0.44900897,-2.8778119,-0.88523477
2115,4.2877167,0.58323228,-2.6668897,-0.89215899
2116,4.2897919,0.69188929,-2.4740767,-0.8905611
2117,4.291745,0.79042625,-2.3052323,-0.87990844
2118,4.2937592,0.86499476,-2.1571605,-0.85860318
2119,4.2957733,0.92518216,-2.0202739,-0.83569998
2120,4.297757,0.97524959,-1.9068234,-0.80800307
2121,4.2997712,1.0114686,-1.8061559,-0.77657777
2122,4.3017853,1.0386329,-1.717739,-0.74675035
2123,4.3037995,1.0583402,-1.6362462,-0.71159667
2124,4.3057831,1.0695255,-1.5616777,-0.68123662
2125,4.3077668,1.0764498,-1.4977618,-0.64821345
2126,4.3097504,1.071656,-1.4402375,-0.61412495
2127,4.3117646,1.0620687,-1.3901701,-0.58269966
2128,4.3137787,1.0503508,-1.3438311,-0.55340487
2129,4.3157929,1.0306433,-1.3054816,-0.5225122
2130,4.317746,1.009338,-1.2676647,-0.49534798
2131,4.3197602,0.98270649,-1.2325109,-0.46711847
2132,4.3217743,0.95181382,-1.2026836,-0.44048685
2133,4.323758,0.91825795,-1.1744541,-0.41705105
2134,4.3257416,0.88416952,-1.1472899,-0.39681101
2135,4.3277253,0.84155893,-1.1211908,-0.37497309
2136,4.3297394,0.80054623,-1.0918961,-0.35313517
2137,4.3317231,0.76006621,-1.0583402,-0.33449304
2138,4.3337372,0.71585774,-1.0210559,-0.31372038
2139,4.3357514,0.67218184,-0.98110855,-0.29561087
2140,4.337735,0.62424499,-0.93370432,-0.27590349
2141,4.3397187,0.57950389,-0.87884319,-0.25672874
2142,4.3417328,0.53263223,-0.81545997,-0.23702134
2143,4.343747,0.48789111,-0.74994618,-0.21731395
2144,4.3457306,0.43995422,-0.6780408,-0.19654129
2145,4.3477753,0.39361522,-0.60240704,-0.18216023
2146,4.3497589,0.35313517,-0.52197957,-0.16405073
2147,4.3517426,0.31265512,-0.43782368,-0.14807177
2148,4.3538178,0.27590349,-0.35686359,-0.1272991
2149,4.3557709,0.24820662,-0.26738137,-0.10652645
2150,4.357724,0.21837921,-0.1768339,-0.084688522
2151,4.3597077,0.19387813,-0.085753791,-0.062850602
2152,4.3617829,0.17843179,0.0063915867,-0.044741109
2153,4.363736,0.16458336,0.093743272,-0.025033714
2154,4.3657502,0.15339808,0.17949706,0.0
2155,4.3677338,0.14966966,0.2647182,0.023968451
2156,4.369809,0.14753912,0.34408042,0.046339005
2157,4.3717316,0.14860439,0.41651839,0.071905352
2158,4.3737458,0.15393071,0.48043427,0.095341168
2159,4.3757599,0.16138756,0.53795856,0.12357068
2160,4.3778351,0.16990969,0.58323228,0.14807177
2161,4.3797272,0.18216023,0.62317973,0.17097494
2162,4.3817414,0.19441076,0.65833342,0.19707392
2163,4.383725,0.21198763,0.68230188,0.22370553
2164,4.3858002,0.22956449,0.70041138,0.24714136
2165,4.3877228,0.24873926,0.71212929,0.2727077
2166,4.3897065,0.26897928,0.71585774,0.29507825
2167,4.3917206,0.2860235,0.716923,0.31798145
2168,4.3937958,0.30679616,0.71212929,0.33609092
2169,4.3957489,0.32916671,0.70094401,0.3584615
2170,4.3977021,0.35206991,0.6854977,0.37763625
2171,4.3997162,0.37071204,0.65833342,0.39254996
2172,4.4017914,0.39148468,0.63436496,0.41225734
2173,4.403714,0.40693101,0.60293967,0.42397526
2174,4.4056977,0.42450789,0.57044911,0.4362258
2175,4.4076813,0.44208476,0.53103435,0.44634581
2176,4.4097565,0.45859635,0.48842376,0.45912898
2177,4.4116791,0.47031426,0.44101948,0.47031426
2178,4.4136628,0.48203218,0.3920173,0.47830373
2179,4.4157074,0.49534798,0.34141725,0.48522797
2180,4.4177521,0.50813115,0.29028457,0.49215218
2181,4.4196442,0.51878381,0.23542345,0.49641323
2182,4.4216584,0.52890378,0.18269286,0.49801114
2183,4.4236725,0.5406217,0.1272991,0.50067431
2184,4.4257477,0.55180699,0.073503248,0.50173956
2185,4.4276703,0.55979645,0.018109497,0.50227219
2186,4.429654,0.572047,-0.035153728,0.50173956
2187,4.4316376,0.58269966,-0.094808534,0.50600064
2188,4.4337128,0.59228706,-0.15393071,0.50759852
2189,4.4356964,0.60400492,-0.21038973,0.50972903
2190,4.4376496,0.61572284,-0.27004454,0.5139901
2191,4.4396332,0.62477762,-0.32650355,0.51984906
2192,4.4417084,0.63436496,-0.38509309,0.52411014
2193,4.443631,0.64182186,-0.44474792,0.52943641
2194,4.4456452,0.65034395,-0.50014168,0.5320996
2195,4.4476593,0.66046399,-0.55660069,0.53582799
2196,4.449704,0.66365975,-0.61252707,0.54115433
2197,4.4516266,0.67111659,-0.66951871,0.54381752
2198,4.4536408,0.68389976,-0.72171664,0.55020911
2199,4.4556855,0.68656296,-0.77284938,0.55447012
2200,4.4577607,0.69348717,-0.82185155,0.55979645
2201,4.4596527,0.70094401,-0.86606002,0.56459016
2202,4.4616364,0.71053141,-0.91133374,0.57311225
2203,4.4636505,0.72065139,-0.9534117,0.57577544
2204,4.4657257,0.7302388,-0.99282646,0.58323228
2205,4.4676483,0.74675035,-1.0285128,0.58962387
2206,4.469632,0.7637946,-1.0594054,0.59654808
2207,4.4716156,0.78936094,-1.0839065,0.60453761
2208,4.4736908,0.81972098,-1.1068097,0.6130597
2209,4.475644,0.85860318,-1.1174624,0.62690812
2210,4.4775971,0.90973586,-1.1174624,0.64235449
2211,4.4795807,0.96992326,-1.1057445,0.65886605
2212,4.4816559,1.045557,-1.0807108,0.67750818
2213,4.483609,1.1302456,-1.0365024,0.70147663
2214,4.4856232,1.2239889,-0.98110855,0.72597772
2215,4.4876068,1.3182647,-0.91133374,0.75207669
2216,4.489621,1.4173343,-0.83676523,0.77497989
2217,4.4916046,1.5110776,-0.75367463,0.8026768
2218,4.4935883,1.5968314,-0.66632295,0.82930839
2219,4.4956024,1.6708673,-0.57524282,0.85167891
2220,4.4975861,1.7273263,-0.49055427,0.87458211
2221,4.4996003,1.7752632,-0.41012681,0.89482212
2222,4.5015534,1.80296,-0.33875409,0.91879058
2223,4.503537,1.8184065,-0.28336033,0.93743271
2224,4.5055512,1.824798,-0.23382555,0.95181382
2225,4.5075348,1.816276,-0.19813919,0.96193379
2226,4.509549,1.7949706,-0.16831179,0.9763149
2227,4.5115326,1.7651432,-0.15073492,0.98323911
2228,4.5136383,1.7283915,-0.13475595,0.99122858
2229,4.5155609,1.6884441,-0.12197278,0.99335909
2230,4.5175446,1.6373115,-0.11345066,0.99655491
2231,4.5195282,1.5840483,-0.10333065,0.99921805
2232,4.5216034,1.5297197,-0.09267801,1.000816
2233,4.523526,1.4689997,-0.079894833,1.0029465
2234,4.5255402,1.4125407,-0.063915864,1.0077401
2235,4.5275238,1.3518206,-0.039414786,1.0114686
2236,4.529599,1.2958943,-0.011185277,1.0194581
2237,4.5315216,1.2389026,0.023968451,1.0247844
2238,4.5335358,1.1840415,0.066046394,1.0365024
2239,4.5355805,1.1361046,0.12303805,1.0460896
2240,4.5376252,1.0924287,0.19228023,1.0588728
2241,4.5395172,1.0503508,0.27004454,1.0711234
2242,4.5415314,1.0082728,0.3584615,1.0860372
2243,4.5435456,0.97205383,0.45753109,1.1046792
2244,4.5456208,0.92891061,0.55926383,1.1185277
2245,4.5474823,0.89162636,0.66099662,1.1361046
2246,4.549466,0.84741789,0.7664578,1.1536814
2247,4.5514496,0.80107886,0.86552739,1.1675298
2248,4.5535248,0.753142,0.96193379,1.1840415
2249,4.5554779,0.69774824,1.0503508,1.1925635
2250,4.5574616,0.64022392,1.1302456,1.2085425
2251,4.5594452,0.58110178,1.2021509,1.2229236
2252,4.5615204,0.5118596,1.2596753,1.2319783
2253,4.5634735,0.44368264,1.3092101,1.2415657
2254,4.5654572,0.37390783,1.3475596,1.24849
2255,4.5674408,0.29880667,1.3768543,1.2559468
2256,4.569516,0.2231729,1.3997575,1.2650015
2257,4.5714386,0.14221281,1.412008,1.2713932
2258,4.5734223,0.066046394,1.4125407,1.27885
2259,4.5754364,-0.012250541,1.4088123,1.2857742
2260,4.5775116,-0.087351687,1.3986923,1.2942963
2261,4.5794037,-0.17204021,1.3821807,1.2996227
2262,4.5813874,-0.24714136,1.3560816,1.3060142
2263,4.583371,-0.32756883,1.3235911,1.3129385
2264,4.5854462,-0.40266997,1.2905679,1.3241237
2265,4.5873688,-0.47510794,1.2564794,1.3267869
2266,4.589383,-0.54701328,1.2128036,1.3379722
2267,4.5913666,-0.61519021,1.1696603,1.3491575
2268,4.5934418,-0.68230188,1.1190603,1.3571469
2269,4.5953949,-0.74408722,1.0695255,1.3688648
2270,4.5973786,-0.80640519,1.0125339,1.3795174
2271,4.5993622,-0.86446208,0.95660746,1.3933659
2272,4.6014374,-0.91346425,0.90174633,1.406149
2273,4.60336,-0.95980328,0.84688526,1.4215955
2274,4.6053742,-1.0040118,0.79255676,1.433846
2275,4.6073883,-1.0386329,0.74195671,1.4551512
2276,4.609433,-1.0721886,0.68869346,1.474326
2277,4.6113556,-1.099353,0.63383234,1.4924355
2278,4.6133698,-1.1227888,0.58376491,1.5068166
2279,4.6154145,-1.1393003,0.53369749,1.5291871
2280,4.6174897,-1.1595404,0.46019423,1.5590146
2281,4.6193817,-1.1648667,0.43462789,1.5701998
2282,4.6213654,-1.1755193,0.37923414,1.5899072
2283,4.6233795,-1.1808456,0.32170987,1.6117451
2284,4.6254547,-1.1851068,0.26418558,1.6330504
2285,4.6273774,-1.1899004,0.20133498,1.6564863
2286,4.629361,-1.1941614,0.13369069,1.68152
2287,4.6313446,-1.1989552,0.063915864,1.7065537
2288,4.6334198,-1.2037488,-0.012783173,1.7289242
2289,4.635373,-1.2096078,-0.093743272,1.75236
2290,4.6373261,-1.2101405,-0.17949706,1.7731327
2291,4.6393097,-1.2159994,-0.2727077,1.7960359
2292,4.6413849,-1.2218584,-0.37497309,1.8130801
2293,4.643338,-1.2282499,-0.4777711,1.8279938
2294,4.6453522,-1.2314457,-0.58696073,1.8418423
2295,4.6473664,-1.2378373,-0.70307451,1.8498317
2296,4.64935,-1.2452941,-0.82451469,1.8594191
2297,4.6513337,-1.2506205,-0.95021588,1.8658108
2298,4.6533478,-1.2554141,-1.0828413,1.8684739
2299,4.655362,-1.2607405,-1.2181299,1.8700718
2300,4.6574372,-1.2665994,-1.4285196,1.8658108
2301,4.6593293,-1.2665994,-1.4988271,1.8594191
2302,4.6613434,-1.267132,-1.6437031,1.8492991
2303,4.6633271,-1.2639363,-1.7928401,1.834918
2304,4.6654023,-1.252751,-2.0138824,1.8024274
2305,4.6673249,-1.2458268,-2.086853,1.7907095
2306,4.6693085,-1.230913,-2.2349248,1.7667412
2307,4.6713227,-1.2175972,-2.3829966,1.7374463
2308,4.6733979,-1.1883025,-2.5976474,1.690042
2309,4.675351,-1.1669972,-2.7350664,1.6532904
2310,4.6773346,-1.154214,-2.8027108,1.6325178
2311,4.6793183,-1.1291803,-2.9305425,1.5962988
2312,4.6813935,-1.087635,-3.1169639,1.536644
2313,4.6833466,-1.0546118,-3.2272186,1.4945661
2314,4.6853302,-1.0183928,-3.3342776,1.4540859
2315,4.6873139,-1.0002834,-3.3843453,1.4322481
2316,4.6893891,-0.93583483,-3.5191011,1.3646038
2317,4.6913422,-0.89162636,-3.5958002,1.3198626
2318,4.6933564,-0.84209156,-3.6650424,1.2777847
2319,4.6953705,-0.79308939,-3.7188382,1.2325109
2320,4.6973542,-0.73716301,-3.7646446,1.1851068
2321,4.6993683,-0.67857343,-3.7923415,1.1345067
2322,4.7013825,-0.6178534,-3.8125815,1.0844392
2323,4.7033966,-0.55713332,-3.8269625,1.0322412
2324,4.7053803,-0.49481535,-3.8328216,0.97738016
2325,4.7073639,-0.43888897,-3.8333542,0.92305166
2326,4.7093476,-0.38029942,-3.8258972,0.86872315
2327,4.7113617,-0.32011196,-3.8072553,0.81173152
2328,4.7133759,-0.26897928,-3.7822216,0.75580513
2329,4.71539,-0.21944448,-3.7497308,0.70627034
2330,4.7173432,-0.16777915,-3.7071204,0.65247446
2331,4.7193573,-0.11771172,-3.6565201,0.59921128
2332,4.7213715,-0.079894833,-3.6021917,0.55447012
2333,4.7233551,-0.042610578,-3.5457327,0.51132691
2334,4.7253388,-0.013848438,-3.4876759,0.47084689
2335,4.7273224,0.016511599,-3.4376085,0.4314321
2336,4.7293366,0.03834952,-3.3832798,0.39627838
2337,4.7313202,0.055926383,-3.3390715,0.36804888
2338,4.7333039,0.071905352,-3.2964609,0.3355583
2339,4.7353485,0.085753791,-3.2543828,0.30945933
2340,4.7374237,0.096939065,-3.2176313,0.28495824
2341,4.7393158,0.10972224,-3.1760859,0.2625877
2342,4.7412995,0.11824436,-3.1340079,0.24394555
2343,4.7433136,0.12676647,-3.0903323,0.22423817
2344,4.7453888,0.13315806,-3.0466564,0.20399815
2345,4.7473114,0.14274544,-2.9976542,0.18801917
2346,4.7492951,0.15286545,-2.9470541,0.17257284
2347,4.7512787,0.16138756,-2.8953888,0.15606125
2348,4.7533539,0.16777915,-2.8357339,0.13901702
2349,4.7553376,0.1768339,-2.7782097,0.12037488
2350,4.7572907,0.18429075,-2.7148266,0.10546118
2351,4.7592743,0.18908444,-2.6455843,0.087351687
2352,4.7613495,0.19387813,-2.5768747,0.069774821
2353,4.7632721,0.19813919,-2.5060346,0.051665325
2354,4.7652863,0.20399815,-2.4293356,0.033023197
2355,4.7672699,0.20453078,-2.3526366,0.015446335
2356,4.7693451,0.20772657,-2.2732744,0.0
2357,4.7712677,0.20932446,-2.1949775,-0.021837922
2358,4.7732819,0.20559604,-2.1145499,-0.036218993
2359,4.7752961,0.20346551,-2.0325246,-0.053795855
2360,4.7773712,0.20080236,-1.9504992,-0.06870956
2361,4.7792633,0.19547603,-1.8658108,-0.085753791
2362,4.7812775,0.18908444,-1.7811222,-0.10013486
2363,4.7832917,0.18482338,-1.6943032,-0.11132014
2364,4.7853363,0.175236,-1.6064188,-0.12463594
2365,4.7872589,0.17044231,-1.5190672,-0.13901702
2366,4.7892426,0.16298546,-1.4322481,-0.1454086
2367,4.7912567,0.15446335,-1.3459617,-0.15765914
2368,4.7933319,0.14807177,-1.2596753,-0.16618125
2369,4.7952851,0.14008227,-1.1707256,-0.17417073
2370,4.7972687,0.12676647,-1.0871024,-0.17896444
2371,4.7992524,0.11771172,-1.0024139,-0.18216023
2372,4.8013275,0.10386328,-0.92038846,-0.18322548
2373,4.8032807,0.095873803,-0.84209156,-0.18748654
2374,4.8052643,0.082025364,-0.7637946,-0.18588865
2375,4.807248,0.071372718,-0.68762821,-0.18482338
2376,4.8093232,0.058056913,-0.61465758,-0.18269286
2377,4.8112763,0.045806371,-0.54168695,-0.18056233
2378,4.8132599,0.032490566,-0.47191215,-0.18002969
2379,4.8152741,0.021837922,-0.40320259,-0.17843179
2380,4.8173493,0.012250541,-0.33662358,-0.17363811
2381,4.8192719,0.0,-0.26897928,-0.17204021
2382,4.8212555,-0.0063915867,-0.20346551,-0.16405073
2383,4.8232392,-0.014913702,-0.13901702,-0.1635181
2384,4.8253144,-0.018642128,-0.076166406,-0.15925704
2385,4.827237,-0.021305289,-0.018109497,-0.15499598
2386,4.8292511,-0.025566347,0.042077947,-0.14913702
2387,4.8312653,-0.025566347,0.10120013,-0.14327806
2388,4.8333405,-0.021305289,0.1555286,-0.13954964
2389,4.8352631,-0.01917476,0.20612867,-0.13422333
2390,4.8372467,-0.016511599,0.25300032,-0.128897
2391,4.8392609,-0.011185277,0.30093721,-0.1272991
2392,4.8413361,-0.0031957934,0.34194988,-0.12090752
2393,4.8432587,0.007989483,0.37870151,-0.11824436
2394,4.8452423,0.018642128,0.41438788,-0.1139833
2395,4.847226,0.025566347,0.44208476,-0.11185277
2396,4.8493012,0.042077947,0.46552056,-0.1107875
2397,4.8512543,0.054328486,0.48682585,-0.11291803
2398,4.8532685,0.066046394,0.50493532,-0.11504856
2399,4.8552521,0.087351687,0.51771855,-0.11185277
2400,4.8573578,0.10279802,0.52890378,-0.1123854
2401,4.8592194,0.12090752,0.53529537,-0.11504856
2402,4.8612336,0.13635385,0.53689331,-0.1139833
2403,4.8632477,0.1587244,0.53795856,-0.10972224
2404,4.8652924,0.17789917,0.54275227,-0.10386328
2405,4.867215,0.19600865,0.54594803,-0.09960223
2406,4.8691986,0.21731395,0.54328489,-0.093743272
2407,4.8711823,0.24181503,0.54168695,-0.085221156
2408,4.8732575,0.26365295,0.53795856,-0.083090626
2409,4.8752106,0.28176245,0.52624065,-0.073503248
2410,4.8771942,0.30200246,0.51878381,-0.067644291
2411,4.8791779,0.3222425,0.50866377,-0.058056913
2412,4.8812531,0.34141725,0.4990764,-0.047404267
2413,4.8832062,0.36112466,0.4910869,-0.036218993
2414,4.8851899,0.38083205,0.4777711,-0.029294772
2415,4.8871735,0.39361522,0.46498793,-0.02609898
2416,4.8892487,0.41225734,0.44847634,-0.018109497
2417,4.8912018,0.42930159,0.42930159,-0.0090547483
2418,4.8931855,0.44741106,0.40639839,-0.0026631611
2419,4.8951996,0.4596616,0.38349521,0.007989483
2420,4.8972748,0.47084689,0.35526571,0.015446335
2421,4.8991974,0.48469532,0.32756883,0.022370555
2422,4.9011811,0.49747851,0.29720879,0.03089267
2423,4.9031647,0.50546801,0.26631612,0.038882151
2424,4.9052399,0.5118596,0.23489082,0.043675844
2425,4.9071625,0.51931643,0.19654129,0.047404267
2426,4.9091767,0.52624065,0.15925704,0.05273059
2427,4.9111908,0.5299691,0.11984225,0.059122179
2428,4.9132965,0.53263223,0.083090626,0.067111664
2429,4.9151886,0.53263223,0.038882151,0.073503248
2430,4.9171723,0.53582799,-0.0031957934,0.077764302
2431,4.9191864,0.53316486,-0.050600063,0.082025364
2432,4.9212311,0.53050172,-0.10226539,0.086819053
2433,4.9231537,0.52677327,-0.1555286,0.089482218
2434,4.9251374,0.51878381,-0.21092236,0.095873803
2435,4.9271515,0.51292485,-0.2625877,0.10066749
2436,4.9292267,0.50387007,-0.32490566,0.10279802
2437,4.9311188,0.50014168,-0.386691,0.10492855
2438,4.9331024,0.49268481,-0.44794372,0.10812435
2439,4.9351471,0.48309743,-0.51345748,0.10812435
2440,4.9371918,0.47084689,-0.57524282,0.1123854
2441,4.9391144,0.46339005,-0.64075655,0.11664646
2442,4.9410981,0.45540056,-0.70573771,0.11824436
2443,4.9431122,0.44687843,-0.77497989,0.12144015
2444,4.9451874,0.43462789,-0.84262419,0.12090752
2445,4.94711,0.42504051,-0.91666007,0.12463594
2446,4.9490937,0.40959418,-0.99069595,0.12516858
2447,4.9510773,0.40266997,-1.0759171,0.12623383
2448,4.9531525,0.38615838,-1.1563445,0.13475595
2449,4.9551056,0.37071204,-1.2341089,0.14594123
2450,4.9570587,0.35952675,-1.3086774,0.16085494
2451,4.9590424,0.34887412,-1.3853765,0.17736652
2452,4.9611176,0.34141725,-1.4572818,0.18908444
2453,4.9630707,0.33449304,-1.532383,0.20559604
2454,4.9650849,0.32543829,-1.5984293,0.22264028
2455,4.9670685,0.32011196,-1.6671388,0.2428803
2456,4.9690827,0.31531829,-1.7326527,0.26045716
2457,4.9710968,0.314253,-1.7992316,0.28122982
2458,4.973111,0.32011196,-1.8620822,0.30519825
2459,4.9750946,0.32170987,-1.9270633,0.33129725
2460,4.9771698,0.33076462,-1.9947077,0.35153726
2461,4.9790924,0.34461305,-2.0506341,0.37550572
2462,4.9810761,0.35686359,-2.1118867,0.39894155
2463,4.9830597,0.37816888,-2.1699438,0.42397526
2464,4.9851349,0.39361522,-2.2290659,0.44794372
2465,4.9870575,0.41065946,-2.2849922,0.47244477
2466,4.9890717,0.42397526,-2.3350596,0.50120693
2467,4.9910858,0.44048685,-2.3829966,0.53103435
2468,4.993161,0.45486793,-2.4224114,0.56618804
2469,4.9951142,0.4628574,-2.4586303,0.60080916
2470,4.9970673,0.47137952,-2.4873924,0.63170183
2471,4.9990815,0.47617322,-2.5118935,0.66365975
2472,5.0011566,0.47617322,-2.5310683,0.69295454
2473,5.0030793,0.47670585,-2.5459821,0.72118402
2474,5.0050629,0.47084689,-2.5513084,0.74248934
2475,5.0070465,0.46339005,-2.5545042,0.7664578
2476,5.0091217,0.45486793,-2.5529063,0.78723043
2477,5.0110443,0.44474792,-2.54758,0.80533993
2478,5.013028,0.43036684,-2.5363946,0.82078624
2479,5.0150421,0.41758367,-2.5294704,0.83250415
2480,5.0171173,0.40746364,-2.5188179,0.84262419
2481,5.0190094,0.39148468,-2.5033715,0.84901577
2482,5.0209931,0.38083205,-2.4863272,0.85540736
2483,5.0229767,0.36591834,-2.4682178,0.85966843
2484,5.0250519,0.35473305,-2.449043,0.86126631
2485,5.0269745,0.34408042,-2.4250746,0.86073369
2486,5.0289887,0.3323625,-2.4058998,0.86179894
2487,5.0309723,0.32650355,-2.3835292,0.86126631
2488,5.0330475,0.31851408,-2.3558323,0.85966843
2489,5.0350006,0.31052458,-2.3297334,0.86233157
2490,5.0369843,0.31105721,-2.3020365,0.86233157
2491,5.0389679,0.30786142,-2.2786007,0.86446208
2492,5.0410431,0.30945933,-2.2525017,0.86819053
2493,5.0429657,0.31212249,-2.2258701,0.86978841
2494,5.0449799,0.31798145,-2.1997712,0.87671262
2495,5.0469635,0.32490566,-2.1704764,0.88203895
2496,5.0490387,0.33076462,-2.1406488,0.89109373
2497,5.0509308,0.33875409,-2.1092236,0.89588743
2498,5.052945,0.34887412,-2.07407,0.90281165
2499,5.0549897,0.35579833,-2.0383835,0.91133374
2500,5.0570343,0.36272255,-2.0021646,0.91985583
2501,5.0589264,0.36751625,-1.9622171,0.92571479
2502,5.0609406,0.37071204,-1.9190739,0.93476957
2503,5.0629547,0.37017938,-1.8807244,0.93849796
2504,5.0650299,0.3685815,-1.8397117,0.94382429
2505,5.066922,0.36591834,-1.798699,0.94861799
2506,5.0689057,0.3584615,-1.7576864,0.95607483
2507,5.0708893,0.34301516,-1.7156084,0.96033591
2508,5.0729645,0.32916671,-1.6740631,0.96566224
2509,5.0749176,0.31318775,-1.6335831,0.97098857
2510,5.0768708,0.29294774,-1.5909724,0.9715212
2511,5.0788849,0.27110979,-1.5483619,0.97365171
2512,5.0809601,0.24660872,-1.5078819,0.97524959
2513,5.0829132,0.22264028,-1.4679344,0.97897804
2514,5.0848969,0.19813919,-1.4242586,0.97791278
2515,5.0868805,0.16990969,-1.3768543,0.97471696
2516,5.0889557,0.14221281,-1.3326459,0.97471696
2517,5.0909088,0.11664646,-1.2815131,0.97205383
2518,5.0928925,0.092145376,-1.2319783,0.96566224
2519,5.0949066,0.067111664,-1.1755193,0.96033591
2520,5.0969818,0.046339005,-1.1174624,0.95500958
2521,5.0989045,0.027164243,-1.0556771,0.94542223
2522,5.1008881,0.0074568512,-0.99335909,0.93796533
2523,5.1028717,-0.0063915867,-0.92997587,0.92731273
2524,5.1049469,-0.02609898,-0.86339682,0.91666007
2525,5.1068695,-0.042610578,-0.79681784,0.90547478
2526,5.1088532,-0.056459017,-0.72970617,0.88843054
2527,5.1108673,-0.07456851,-0.66525763,0.87085372
2528,5.1129425,-0.089482218,-0.60134178,0.85167891
2529,5.1148957,-0.10599381,-0.54275227,0.83463472
2530,5.1168488,-0.12623383,-0.48789111,0.81279677
2531,5.1188629,-0.14647387,-0.43729106,0.78989357
2532,5.1209381,-0.16777915,-0.3920173,0.7637946
2533,5.1228607,-0.18908444,-0.3536678,0.73716301
2534,5.1248444,-0.21358553,-0.31851408,0.70733559
