,acc_time,accX,accY,accZ,label
0,0.26582412,1.7860745,-3.6128504,9.2060051,C321
1,0.26782412,1.8315643,-3.6128504,9.1676979,C321
2,0.26982412,1.8483237,-3.608062,9.1413612,C321
3,0.27182412,1.8602947,-3.5817258,9.0695353,C321
4,0.27382412,1.8674773,-3.5434184,8.9570074,C321
5,0.27582387,1.8890251,-3.5314474,8.9019413,C321
6,0.27782367,1.9249382,-3.550601,8.7894135,C321
7,0.27981917,1.946486,-3.5482068,8.6912518,C321
8,0.28181531,1.958457,-3.5434184,8.6529446,C321
9,0.28381193,1.9776106,-3.5338416,8.5835123,C321
10,0.28580893,1.9440918,-3.502717,8.5356283,C321
11,0.28780883,1.8866309,-3.490746,8.5332346,C321
12,0.28980874,1.8650831,-3.4931402,8.5404167,C321
13,0.29180866,1.8171991,-3.4883518,8.5787239,C321
14,0.29380858,1.7860745,-3.5003228,8.6026659,C321
15,0.29580851,1.7525556,-3.5673606,8.6385794,C321
16,0.29780844,1.7525556,-3.632004,8.6673098,C321
17,0.29980838,1.7477672,-3.667917,8.6673098,C321
18,0.30180832,1.7788919,-3.7445314,8.6673098,C321
19,0.30380826,1.8028339,-3.8402996,8.6505499,C321
20,0.30580768,1.7980455,-3.892972,8.6433678,C321
21,0.30780768,1.8028339,-4.0102878,8.6457615,C321
22,0.30980768,1.8435353,-4.2042184,8.6768866,C321
23,0.31180768,1.8770541,-4.3167458,8.6888571,C321
24,0.31380768,1.9249382,-4.5202527,8.7295589,C321
25,0.31580768,1.8962077,-4.6327801,8.7846251,C321
26,0.31780768,1.8387469,-4.6447511,8.8396921,C321
27,0.31980665,1.8195933,-4.6184149,8.8444805,C321
28,0.32180565,1.8148049,-4.5777135,8.8205385,C321
29,0.32380468,1.7621324,-4.4532151,8.7894135,C321
30,0.32580375,1.6903064,-4.331111,8.7678661,C321
31,0.32780372,1.6400281,-4.19943,8.7439241,C321
32,0.32980368,1.6160861,-4.1323919,8.7630777,C321
33,0.33180365,1.5801731,-4.0102878,8.8157501,C321
34,0.33380361,1.5514427,-3.9360676,8.880393,C321
35,0.33580361,1.496376,-3.9073372,8.9139118,C321
36,0.33780365,1.496376,-3.8905778,8.9641905,C321
37,0.33980455,1.5059528,-3.8738184,9.0288343,C321
38,0.34180545,1.5298948,-3.892972,9.0575647,C321
39,0.34380635,1.5801731,-3.9097314,9.0910835,C321
40,0.34580725,1.5897499,-3.9552212,9.1078424,C321
41,0.34780728,1.6807296,-3.98874,9.1198139,C321
42,0.34980731,1.7118542,-4.0078936,9.1246023,C321
43,0.35180735,1.7429788,-4.024653,9.1222076,C321
44,0.35380734,1.8004397,-4.0390182,9.1389675,C321
45,0.35580734,1.8914193,-4.0629601,9.1222076,C321
46,0.35780734,1.9776106,-4.0581717,9.103054,C321
47,0.35980648,1.9919758,-4.048595,9.1006603,C321
48,0.36180561,2.0254946,-4.0078936,9.1078424,C321
49,0.36380474,2.0278888,-3.9719806,9.1222076,C321
50,0.36580421,1.9728222,-3.9145198,9.1413612,C321
51,0.36780331,1.9273324,-3.8881836,9.1533327,C321
52,0.36980328,1.9057846,-3.857059,9.1533327,C321
53,0.37180324,1.8483237,-3.8259344,9.1485443,C321
54,0.37380321,1.7884687,-3.8067808,9.1485443,C321
55,0.37580317,1.7645266,-3.7852328,9.1557264,C321
56,0.37780314,1.7070658,-3.7684734,9.1581211,C321
57,0.37980384,1.6998832,-3.7612908,9.1533327,C321
58,0.38180471,1.6783354,-3.7565024,9.1605148,C321
59,0.38380561,1.6472107,-3.7588966,9.1605148,C321
60,0.38580651,1.6663644,-3.7493198,9.1246023,C321
61,0.38780654,1.6879122,-3.763685,9.0910835,C321
62,0.38980657,1.7070658,-3.7660792,9.0695353,C321
63,0.39180661,1.769315,-3.7565024,9.0288343,C321
64,0.39380664,1.8052281,-3.763685,9.0048914,C321
65,0.39580577,1.8866309,-3.7541082,8.9426422,C321
66,0.3978055,1.9393034,-3.7588966,8.9067297,C321
67,0.3998046,1.9560628,-3.7660792,8.8899698,C321
68,0.40180457,1.9991584,-3.7660792,8.8444805,C321
69,0.40380454,2.0231004,-3.763685,8.8133554,C321
70,0.4058045,2.0159178,-3.7684734,8.7965965,C321
71,0.40780447,2.0015526,-3.7948096,8.7726545,C321
72,0.40980413,2.0087352,-3.7900212,8.7367411,C321
73,0.4118041,2.0015526,-3.7852328,8.7151937,C321
74,0.4138041,1.9847932,-3.787627,8.6744919,C321
75,0.41580413,1.9512744,-3.7852328,8.6361847,C321
76,0.41780417,1.9321208,-3.7924154,8.6026659,C321
77,0.4198055,1.9297266,-3.8067808,8.5835123,C321
78,0.421806,1.9369092,-3.809175,8.5404167,C321
79,0.4238069,1.9249382,-3.8163576,8.5188684,C321
80,0.4258078,1.8986019,-3.8307228,8.4925327,C321
81,0.4278087,1.8962077,-3.809175,8.4829559,C321
82,0.42980873,1.8986019,-3.8115692,8.4733791,C321
83,0.43180873,1.9129672,-3.8187518,8.4446487,C321
84,0.43380873,1.9153614,-3.7972038,8.4350719,C321
85,0.43580873,1.922544,-3.7852328,8.4302835,C321
86,0.43780873,1.9416976,-3.7612908,8.4470425,C321
87,0.43980803,1.9416976,-3.7732618,8.4470425,C321
88,0.44180716,1.9177556,-3.7780502,8.4733791,C321
89,0.44380713,1.9057846,-3.7804444,8.5068979,C321
90,0.4458071,1.8770541,-3.7852328,8.538023,C321
91,0.44780706,1.8746599,-3.7828386,8.585907,C321
92,0.44980703,1.8674773,-3.7828386,8.6146374,C321
93,0.451807,1.8962077,-3.7828386,8.6553383,C321
94,0.45380663,1.9153614,-3.7804444,8.6697035,C321
95,0.45580749,1.946486,-3.7852328,8.7032223,C321
96,0.45780773,1.9656396,-3.7948096,8.7463179,C321
97,0.45980859,1.9680338,-3.8043866,8.7798367,C321
98,0.46180863,1.982399,-3.8019924,8.8492689,C321
99,0.46380866,1.9752164,-3.8043866,8.8971529,C321
100,0.46580869,1.9632454,-3.8043866,8.928277,C321
101,0.46780873,1.9728222,-3.809175,8.9857378,C321
102,0.46980906,1.9656396,-3.8259344,9.0360165,C321
103,0.47180909,1.9416976,-3.8283286,9.0551701,C321
104,0.47380912,1.8818425,-3.8139634,9.0910835,C321
105,0.47580912,1.8650831,-3.8139634,9.1078424,C321
106,0.47780909,1.8148049,-3.809175,9.0982656,C321
107,0.47980776,1.8004397,-3.7972038,9.0934772,C321
108,0.48180726,1.7956513,-3.7948096,9.0862951,C321
109,0.48380636,1.7717092,-3.775656,9.0599585,C321
110,0.48580546,1.7525556,-3.751714,9.0168629,C321
111,0.48780542,1.7621324,-3.7565024,8.976161,C321
112,0.48980499,1.7645266,-3.751714,8.9498253,C321
113,0.49180499,1.7717092,-3.7445314,8.904335,C321
114,0.49380502,1.7741034,-3.7301662,8.8756046,C321
115,0.49580505,1.8052281,-3.7301662,8.8229322,C321
116,0.49780509,1.8243817,-3.727772,8.7487125,C321
117,0.49980599,1.8267759,-3.727772,8.7487125,C321
118,0.50180689,1.8459295,-3.7301662,8.6960402,C321
119,0.50380692,1.8794483,-3.7493198,8.6625214,C321
120,0.50580695,1.8746599,-3.763685,8.6361847,C321
121,0.50780699,1.8962077,-3.7469256,8.5787239,C321
122,0.50980699,1.9033904,-3.7493198,8.5691471,C321
123,0.51180699,1.910573,-3.7588966,8.5667534,C321
124,0.51380732,1.9273324,-3.7445314,8.5595703,C321
125,0.51580732,1.9153614,-3.7565024,8.5523882,C321
126,0.51780732,1.922544,-3.7588966,8.5595703,C321
127,0.51980645,1.9201498,-3.7469256,8.5595703,C321
128,0.52180555,1.9057846,-3.7349546,8.5883007,C321
129,0.52380465,1.9033904,-3.7325604,8.6026659,C321
130,0.52580375,1.9081788,-3.7205894,8.633791,C321
131,0.52780372,1.8986019,-3.715801,8.6960402,C321
132,0.52980368,1.8914193,-3.7134068,8.7247705,C321
133,0.53180365,1.9009962,-3.7062242,8.7989902,C321
134,0.53380362,1.9369092,-3.7062242,8.8756046,C321
135,0.53580358,1.9488802,-3.70383,8.9115181,C321
136,0.53780358,1.9728222,-3.6966474,8.9833441,C321
137,0.53980448,1.99437,-3.6870706,9.0264397,C321
138,0.54180538,2.006341,-3.6870706,9.0360165,C321
139,0.54380628,2.0207062,-3.6727054,9.0551701,C321
140,0.54580718,2.0326772,-3.6607344,9.0551701,C321
141,0.54780722,2.0494366,-3.6750996,9.0336227,C321
142,0.54980875,2.0398598,-3.6655228,9.0096798,C321
143,0.55180878,2.0254946,-3.6631286,8.9474306,C321
144,0.55380878,2.0039468,-3.6631286,8.9019413,C321
145,0.55580875,1.9728222,-3.6703112,8.8037786,C321
146,0.55780871,1.9512744,-3.6703112,8.6649151,C321
147,0.55980781,1.9512744,-3.6703112,8.6649151,C321
148,0.56180691,1.9321208,-3.6870706,8.5667534,C321
149,0.56380601,1.8938135,-3.7086184,8.4590139,C321
150,0.56580511,1.8842367,-3.727772,8.4254951,C321
151,0.56780421,1.8531121,-3.7445314,8.3536692,C321
152,0.56980455,1.8435353,-3.8235402,8.2483244,C321
153,0.57180458,1.8531121,-3.8714242,8.1980457,C321
154,0.57380461,1.8531121,-3.9432502,8.1549501,C321
155,0.57580465,1.8291701,-3.976769,8.1836805,C321
156,0.57780468,1.8339585,-3.9671922,8.2148056,C321
157,0.57980558,1.8435353,-3.9456444,8.2243824,C321
158,0.58180648,1.8579005,-3.8738184,8.2579012,C321
159,0.58380738,1.8650831,-3.8307228,8.2722664,C321
160,0.58580828,1.910573,-3.7684734,8.2890253,C321
161,0.58780828,1.9440918,-3.691859,8.3321209,C321
162,0.58980828,1.9536686,-3.6511576,8.3728228,C321
163,0.59180828,1.9847932,-3.596091,8.4661961,C321
164,0.59380828,2.0135236,-3.5434184,8.5883007,C321
165,0.59580828,2.0111294,-3.5410242,8.6481562,C321
166,0.59780828,1.9800048,-3.5410242,8.7822313,C321
167,0.59980738,1.9608512,-3.53863,8.8516626,C321
168,0.60180734,1.9249382,-3.5865142,8.952219,C321
169,0.60380731,1.8674773,-3.6152446,9.0743237,C321
170,0.60580728,1.8291701,-3.643975,9.1868515,C321
171,0.60780724,1.7645266,-3.6703112,9.2682543,C321
172,0.60980611,1.7717092,-3.679888,9.3137436,C321
173,0.61180607,1.7717092,-3.679888,9.3592339,C321
174,0.61380604,1.8004397,-3.6655228,9.4119062,C321
175,0.61580604,1.8171991,-3.6655228,9.4358482,C321
176,0.61780607,1.8076223,-3.6631286,9.4166946,C321
177,0.61980697,1.8028339,-3.667917,9.4047232,C321
178,0.62180787,1.7932571,-3.679888,9.3879642,C321
179,0.62380877,1.7932571,-3.691859,9.3927526,C321
180,0.62580967,1.7741034,-3.7301662,9.3712044,C321
181,0.62781057,1.697489,-3.7684734,9.3568392,C321
182,0.62981024,1.6543933,-3.7732618,9.3544455,C321
183,0.63181024,1.5873557,-3.7900212,9.3448687,C321
184,0.63381021,1.5418659,-3.787627,9.3616276,C321
185,0.63581017,1.5227122,-3.8067808,9.366416,C321
186,0.63781014,1.4484921,-3.8163576,9.3999348,C321
187,0.63980924,1.4245501,-3.821146,9.4190884,C321
188,0.64180834,1.4101849,-3.8187518,9.4310598,C321
189,0.6438083,1.4125791,-3.809175,9.4478188,C321
190,0.64580827,1.4341269,-3.7780502,9.469367,C321
191,0.64780827,1.4676456,-3.7732618,9.4885206,C321
192,0.6498083,1.4820108,-3.7804444,9.5004921,C321
193,0.65180834,1.520318,-3.7660792,9.5076742,C321
194,0.65380837,1.5346833,-3.7660792,9.5028858,C321
195,0.6558084,1.5729905,-3.7900212,9.4813375,C321
196,0.65780817,1.6065093,-3.8019924,9.4526072,C321
197,0.65980907,1.6304513,-3.8067808,9.4334536,C321
198,0.6618091,1.6496049,-3.7924154,9.397541,C321
199,0.66380913,1.6759412,-3.7924154,9.3496571,C321
200,0.66580913,1.685518,-3.7828386,9.3161383,C321
201,0.66780913,1.7070658,-3.7373488,9.2538891,C321
202,0.66980913,1.7357962,-3.7229836,9.1820631,C321
203,0.67180913,1.7429788,-3.7014358,9.1485443,C321
204,0.67380913,1.7645266,-3.6727054,9.0671415,C321
205,0.67580913,1.7717092,-3.6631286,9.0024977,C321
206,0.6778091,1.7669208,-3.6487634,8.9570074,C321
207,0.67980817,1.7645266,-3.6391866,8.9210949,C321
208,0.68180726,1.7477672,-3.6391866,8.8612394,C321
209,0.68380636,1.7501614,-3.6463692,8.8444805,C321
210,0.68580547,1.7310078,-3.6296098,8.8157501,C321
211,0.68780543,1.7070658,-3.6343982,8.7726545,C321
212,0.68980543,1.7070658,-3.6296098,8.7487125,C321
213,0.6918054,1.6807296,-3.6176388,8.7127991,C321
214,0.6938054,1.661576,-3.620033,8.681675,C321
215,0.6958054,1.673547,-3.6391866,8.6625214,C321
216,0.69780543,1.7022774,-3.715801,8.6290026,C321
217,0.69980633,1.7166426,-3.7924154,8.6122427,C321
218,0.70180723,1.7405846,-3.8402996,8.6194258,C321
219,0.70380726,1.7669208,-3.9240966,8.6457615,C321
220,0.7058069,1.7549498,-3.9456444,8.7151937,C321
221,0.70780693,1.7405846,-3.952827,8.8277206,C321
222,0.70980693,1.7310078,-3.9552212,8.8947582,C321
223,0.7118069,1.6711528,-3.940856,9.0312281,C321
224,0.71380686,1.6496049,-3.9480386,9.0886889,C321
225,0.71580683,1.6017209,-3.9193082,9.198822,C321
226,0.71780706,1.5825673,-3.8953662,9.3089552,C321
227,0.71980616,1.5825673,-3.904943,9.3520508,C321
228,0.72180526,1.5682021,-3.9217024,9.4166946,C321
229,0.72380436,1.5682021,-3.9193082,9.421483,C321
230,0.72580349,1.5969325,-3.9097314,9.4071178,C321
231,0.72780353,1.6567876,-3.9073372,9.3640223,C321
232,0.72980356,1.6927006,-3.8714242,9.2921963,C321
233,0.73180359,1.7118542,-3.8642416,9.2419176,C321
234,0.73380363,1.7357962,-3.8594532,9.1413612,C321
235,0.73580366,1.7429788,-3.8402996,9.0288343,C321
236,0.73780369,1.7621324,-3.8379054,8.8947582,C321
237,0.73980462,1.7477672,-3.833117,8.8277206,C321
238,0.74180552,1.7310078,-3.8187518,8.7008286,C321
239,0.74380639,1.7046716,-3.8259344,8.6481562,C321
240,0.74580726,1.6927006,-3.8402996,8.5595703,C321
241,0.74780726,1.6998832,-3.833117,8.3345156,C321
242,0.74980712,1.697489,-3.8355112,8.3728228,C321
243,0.75180712,1.7022774,-3.845088,8.4374657,C321
244,0.75380712,1.70946,-3.8498764,8.3225441,C321
245,0.75580712,1.7238252,-3.8498764,8.3967648,C321
246,0.75780709,1.7381904,-3.8594532,8.4805613,C321
247,0.75980619,1.7501614,-3.8642416,8.3991585,C321
248,0.76180529,1.7764976,-3.8642416,8.4231005,C321
249,0.76380439,1.7932571,-3.8618474,8.5356283,C321
250,0.76580389,1.8028339,-3.8546648,8.5356283,C321
251,0.76780295,1.8195933,-3.8498764,8.6170311,C321
252,0.76980292,1.8195933,-3.845088,8.705617,C321
253,0.77180292,1.8171991,-3.8426938,8.7295589,C321
254,0.77380292,1.8052281,-3.8402996,8.7319527,C321
255,0.77580295,1.7860745,-3.833117,8.8109617,C321
256,0.77780299,1.7645266,-3.8259344,8.8253269,C321
257,0.77980389,1.7429788,-3.8187518,8.8492689,C321
258,0.78180479,1.7262194,-3.8187518,8.9210949,C321
259,0.78380569,1.7118542,-3.8187518,8.9641905,C321
260,0.78580659,1.6950948,-3.821146,8.9857378,C321
261,0.78780659,1.685518,-3.8235402,9.0336227,C321
262,0.78980615,1.673547,-3.8235402,9.0623531,C321
263,0.79180612,1.6663644,-3.8259344,9.0671415,C321
264,0.79380608,1.6567876,-3.8259344,9.0839005,C321
265,0.79580605,1.6472107,-3.8235402,9.0791121,C321
266,0.79780602,1.6424223,-3.8139634,9.0599585,C321
267,0.79980512,1.6376339,-3.8067808,9.0455933,C321
268,0.80180508,1.6376339,-3.8019924,9.0192575,C321
269,0.80380508,1.6352397,-3.7948096,8.9881325,C321
270,0.80580512,1.6328455,-3.7900212,8.9641905,C321
271,0.80780515,1.6328455,-3.7828386,8.9306717,C321
272,0.80980531,1.6328455,-3.775656,8.9019413,C321
273,0.81180535,1.6376339,-3.7660792,8.8756046,C321
274,0.81380538,1.6424223,-3.7565024,8.8468742,C321
275,0.81580541,1.6496049,-3.7493198,8.8133554,C321
276,0.81780545,1.6591818,-3.739743,8.7846251,C321
277,0.81980665,1.6663644,-3.7325604,8.7582893,C321
278,0.82180751,1.6783354,-3.7253778,8.7367411,C321
279,0.82380838,1.6927006,-3.7205894,8.7199821,C321
280,0.82580924,1.7046716,-3.7205894,8.7032223,C321
281,0.82781014,1.7166426,-3.7229836,8.6984339,C321
282,0.82981014,1.7262194,-3.727772,8.6984339,C321
283,0.83181014,1.7381904,-3.7301662,8.7008286,C321
284,0.83381014,1.7429788,-3.7301662,8.7104053,C321
285,0.83581011,1.7501614,-3.7301662,8.7223759,C321
286,0.83781008,1.757344,-3.7301662,8.7391357,C321
287,0.83980918,1.7621324,-3.7349546,8.7582893,C321
288,0.84180828,1.7669208,-3.7421372,8.7846251,C321
289,0.84380824,1.7741034,-3.7493198,8.808567,C321
290,0.84580821,1.7860745,-3.751714,8.8349037,C321
291,0.84780817,1.7956513,-3.7588966,8.8588457,C321
292,0.84980821,1.8052281,-3.763685,8.880393,C321
293,0.85180821,1.8148049,-3.7684734,8.904335,C321
294,0.85380824,1.8195933,-3.7732618,8.9258833,C321
295,0.85580827,1.8243817,-3.775656,8.9450369,C321
296,0.85780831,1.8291701,-3.7780502,8.9689789,C321
297,0.85980921,1.8315643,-3.7804444,8.9905262,C321
298,0.86180924,1.8315643,-3.7828386,9.0096798,C321
299,0.86380927,1.8339585,-3.7828386,9.0264397,C321
300,0.86580927,1.8339585,-3.7852328,9.0408049,C321
301,0.86780924,1.8315643,-3.7900212,9.0551701,C321
302,0.8698092,1.8291701,-3.7972038,9.0695353,C321
303,0.87180917,1.8267759,-3.8019924,9.0815067,C321
304,0.87380824,1.8219875,-3.8043866,9.0886889,C321
305,0.8758082,1.8171991,-3.8019924,9.0958719,C321
306,0.87780817,1.8100165,-3.7948096,9.1006603,C321
307,0.87980697,1.8028339,-3.787627,9.1054487,C321
308,0.8818061,1.7956513,-3.775656,9.103054,C321
309,0.88380527,1.7908629,-3.7660792,9.0958719,C321
310,0.88580443,1.7860745,-3.7588966,9.0862951,C321
311,0.88780447,1.7836803,-3.7493198,9.0695353,C321
312,0.8898045,1.7836803,-3.7421372,9.0503817,C321
313,0.89180453,1.7836803,-3.739743,9.0240459,C321
314,0.89380456,1.7836803,-3.739743,8.9881325,C321
315,0.8958046,1.7860745,-3.739743,8.9546137,C321
316,0.89780463,1.7884687,-3.7445314,8.9139118,C321
317,0.8998055,1.7908629,-3.7469256,8.8756046,C321
318,0.90180636,1.7956513,-3.7493198,8.8420858,C321
319,0.90380636,1.8028339,-3.751714,8.808567,C321
320,0.90580636,1.8100165,-3.7493198,8.7798367,C321
321,0.90780636,1.8171991,-3.7445314,8.7535009,C321
322,0.90980673,1.8219875,-3.7469256,8.7271643,C321
323,0.91180673,1.8219875,-3.7469256,8.7008286,C321
324,0.9138067,1.8219875,-3.7445314,8.6768866,C321
325,0.91580666,1.8219875,-3.7373488,8.6601267,C321
326,0.91780663,1.8291701,-3.7253778,8.6553383,C321
327,0.91980569,1.8363527,-3.715801,8.6505499,C321
328,0.92180479,1.8435353,-3.7062242,8.6553383,C321
329,0.92380389,1.8507179,-3.6942532,8.6697035,C321
330,0.92580299,1.8602947,-3.6846764,8.6864634,C321
331,0.92780209,1.8722657,-3.6774938,8.7104053,C321
332,0.92980209,1.8818425,-3.6750996,8.7439241,C321
333,0.93180213,1.8890251,-3.6750996,8.7774429,C321
334,0.93380306,1.8938135,-3.6774938,8.8157501,C321
335,0.93580309,1.8938135,-3.679888,8.856451,C321
336,0.93780313,1.8914193,-3.6846764,8.8971529,C321
337,0.93980373,1.8890251,-3.691859,8.9306717,C321
338,0.94180463,1.8842367,-3.7014358,8.9641905,C321
339,0.94380549,1.8770541,-3.7086184,8.9929209,C321
340,0.94580636,1.8674773,-3.7134068,9.0120745,C321
341,0.94780632,1.8579005,-3.7181952,9.0240459,C321
342,0.94980629,1.8507179,-3.7229836,9.0336227,C321
343,0.95180626,1.8435353,-3.727772,9.0384111,C321
344,0.95380622,1.8387469,-3.7301662,9.0360165,C321
345,0.95580619,1.8339585,-3.7301662,9.0312281,C321
346,0.95780615,1.8291701,-3.7325604,9.0240459,C321
347,0.95980529,1.8267759,-3.7349546,9.0144691,C321
348,0.96180445,1.8219875,-3.7373488,9.0072861,C321
349,0.96380362,1.8195933,-3.7373488,8.9953146,C321
350,0.96580278,1.8148049,-3.739743,8.9833441,C321
351,0.96780195,1.8076223,-3.7421372,8.9713726,C321
352,0.96980198,1.8028339,-3.7421372,8.9594021,C321
353,0.97180202,1.8004397,-3.7421372,8.9474306,C321
354,0.97380205,1.7956513,-3.7421372,8.9354601,C321
355,0.97580208,1.7884687,-3.7421372,8.9234886,C321
356,0.97780182,1.7860745,-3.7373488,8.9115181,C321
357,0.97980258,1.7836803,-3.7325604,8.8971529,C321
358,0.98180345,1.7812861,-3.727772,8.8827877,C321
359,0.98380431,1.7764976,-3.7205894,8.8708162,C321
360,0.98580518,1.7717092,-3.7134068,8.8612394,C321
361,0.98780608,1.7717092,-3.7062242,8.8516626,C321
362,0.98980608,1.7717092,-3.70383,8.8444805,C321
363,0.99180604,1.7717092,-3.70383,8.8372974,C321
364,0.99380601,1.7764976,-3.7062242,8.8277206,C321
365,0.99580598,1.7812861,-3.7086184,8.8229322,C321
366,0.99780594,1.7884687,-3.7110126,8.8205385,C321
367,0.99980534,1.7956513,-3.7110126,8.8181438,C321
368,1.0018053,1.8028339,-3.7110126,8.8229322,C321
369,1.0038053,1.8052281,-3.7134068,8.8301153,C321
370,1.0058052,1.8076223,-3.715801,8.8420858,C321
371,1.0078052,1.8076223,-3.715801,8.8660278,C321
372,1.0098053,1.8124107,-3.7062242,8.8923645,C321
373,1.0118053,1.8267759,-3.6703112,8.9474306,C321
374,1.0138053,1.8387469,-3.6248214,9.000103,C321
375,1.0158054,1.8435353,-3.5865142,9.0455933,C321
376,1.0178054,1.8483237,-3.560178,9.0719299,C321
377,1.0198059,1.8531121,-3.5410242,9.0886889,C321
378,1.0218068,1.8531121,-3.5338416,9.0934772,C321
379,1.0238076,1.8531121,-3.5458126,9.0862951,C321
380,1.0258085,1.8483237,-3.5649664,9.0791121,C321
381,1.0278093,1.8411411,-3.5984852,9.0719299,C321
382,1.0298093,1.8339585,-3.6343982,9.0647469,C321
383,1.0318092,1.8267759,-3.6655228,9.0551701,C321
384,1.0338092,1.8171991,-3.6990416,9.0455933,C321
385,1.0358092,1.8052281,-3.7301662,9.0336227,C321
386,1.0378094,1.7932571,-3.7565024,9.0168629,C321
387,1.0398087,1.7860745,-3.7804444,9.000103,C321
388,1.0418079,1.7764976,-3.8043866,8.9857378,C321
389,1.0438079,1.769315,-3.8259344,8.9737673,C321
390,1.045808,1.7621324,-3.8402996,8.9546137,C321
391,1.047808,1.7597382,-3.8546648,8.9306717,C321
392,1.0498084,1.757344,-3.8642416,8.9067297,C321
393,1.0518084,1.7597382,-3.8642416,8.8851814,C321
394,1.0538085,1.7645266,-3.8642416,8.8612394,C321
395,1.0558085,1.7717092,-3.8618474,8.8372974,C321
396,1.0578085,1.7788919,-3.8522706,8.8109617,C321
397,1.0598093,1.7884687,-3.8426938,8.7894135,C321
398,1.0618093,1.8004397,-3.833117,8.7702599,C321
399,1.0638093,1.8148049,-3.8235402,8.7511063,C321
400,1.0658093,1.8363527,-3.8163576,8.7319527,C321
401,1.0678093,1.8602947,-3.809175,8.7080107,C321
402,1.0698093,1.8842367,-3.8019924,8.6864634,C321
403,1.0718093,1.9129672,-3.7924154,8.6673098,C321
404,1.0738092,1.9369092,-3.7804444,8.6529446,C321
405,1.0758092,1.958457,-3.763685,8.6457615,C321
406,1.0778092,1.9800048,-3.7445314,8.6433678,C321
407,1.0798087,1.99437,-3.7253778,8.6409731,C321
408,1.0818078,2.0015526,-3.7062242,8.6409731,C321
409,1.0838069,2.006341,-3.691859,8.6409731,C321
410,1.085806,2.006341,-3.679888,8.6433678,C321
411,1.087806,1.9991584,-3.6750996,8.6409731,C321
412,1.0898061,1.982399,-3.6703112,8.6433678,C321
413,1.0918061,1.9632454,-3.6655228,8.6505499,C321
414,1.0938061,1.9369092,-3.6607344,8.6625214,C321
415,1.0958062,1.9009962,-3.6607344,8.6768866,C321
416,1.0978062,1.8650831,-3.6607344,8.6912518,C321
417,1.0998071,1.8291701,-3.6655228,8.7032223,C321
418,1.1018079,1.7908629,-3.6727054,8.7175875,C321
419,1.1038079,1.757344,-3.6822822,8.7319527,C321
420,1.1058079,1.7262194,-3.6942532,8.7487125,C321
421,1.1078078,1.6998832,-3.7086184,8.7678661,C321
422,1.1098074,1.6783354,-3.7253778,8.7846251,C321
423,1.1118074,1.6663644,-3.7445314,8.8037786,C321
424,1.1138074,1.661576,-3.7660792,8.8205385,C321
425,1.1158074,1.6591818,-3.7852328,8.8349037,C321
426,1.1178074,1.6567876,-3.8043866,8.8444805,C321
427,1.1198065,1.6519991,-3.821146,8.8492689,C321
428,1.1218056,1.6496049,-3.8307228,8.8468742,C321
429,1.1238048,1.6543933,-3.8379054,8.8444805,C321
430,1.1258039,1.661576,-3.8426938,8.8420858,C321
431,1.1278039,1.6879122,-3.8546648,8.8181438,C321
432,1.1298035,1.7190368,-3.8786068,8.7726545,C321
433,1.1318035,1.7381904,-3.9121256,8.7104053,C321
434,1.1338035,1.7429788,-3.9312792,8.6649151,C321
435,1.1358036,1.7310078,-3.9121256,8.6409731,C321
436,1.1378036,1.7286136,-3.86903,8.6266079,C321
437,1.1398045,1.7357962,-3.8235402,8.6194258,C321
438,1.1418054,1.7597382,-3.775656,8.633791,C321
439,1.1438063,1.7908629,-3.7134068,8.6960402,C321
440,1.1458072,1.8267759,-3.6535518,8.7774429,C321
441,1.1478072,1.8507179,-3.6032736,8.8899698,C321
442,1.1498072,1.8626889,-3.5745432,8.9929209,C321
443,1.1518071,1.8579005,-3.5577838,9.0934772,C321
444,1.1538071,1.8387469,-3.5529952,9.1772747,C321
445,1.155807,1.8171991,-3.5529952,9.246706,C321
446,1.157807,1.7836803,-3.5649664,9.3089552,C321
447,1.1598061,1.7549498,-3.5769374,9.3616276,C321
448,1.1618052,1.7310078,-3.5889084,9.4071178,C321
449,1.1638043,1.70946,-3.6008794,9.4430304,C321
450,1.1658035,1.697489,-3.608062,9.4669724,C321
451,1.1678027,1.6927006,-3.6128504,9.4837322,C321
452,1.1698027,1.6903064,-3.6176388,9.4885206,C321
453,1.1718027,1.6879122,-3.620033,9.4813375,C321
454,1.1738028,1.6879122,-3.6224272,9.4669724,C321
455,1.1758028,1.6879122,-3.6224272,9.4406366,C321
456,1.1778028,1.6879122,-3.620033,9.4047232,C321
457,1.1798037,1.6903064,-3.6152446,9.3688107,C321
458,1.1818046,1.6879122,-3.608062,9.3281088,C321
459,1.1838055,1.6879122,-3.608062,9.2826195,C321
460,1.185806,1.6903064,-3.6056678,9.2419176,C321
461,1.187806,1.6998832,-3.6032736,9.198822,C321
462,1.1925388,1.7070658,-3.6032736,9.1605148,C321
463,1.1945388,1.7142484,-3.6056678,9.1293907,C321
464,1.1965388,1.7238252,-3.6152446,9.0982656,C321
465,1.1985388,1.7357962,-3.6272156,9.0671415,C321
466,1.2005387,1.7477672,-3.6391866,9.0384111,C321
467,1.2025378,1.7597382,-3.6487634,9.0120745,C321
468,1.2045378,1.7717092,-3.6487634,8.9857378,C321
469,1.2065378,1.7836803,-3.643975,8.9641905,C321
470,1.2085377,1.7980455,-3.6296098,8.9450369,C321
471,1.2105377,1.8076223,-3.6056678,8.928277,C321
472,1.2125377,1.8171991,-3.5793316,8.9139118,C321
473,1.2145377,1.8267759,-3.5458126,8.8995466,C321
474,1.2165378,1.8363527,-3.5122938,8.8851814,C321
475,1.2185378,1.8435353,-3.4859576,8.8732109,C321
476,1.2205378,1.8435353,-3.4644098,8.8660278,C321
477,1.2225387,1.8435353,-3.4476504,8.8636341,C321
478,1.2245393,1.8411411,-3.4380736,8.8660278,C321
479,1.2265402,1.8339585,-3.430891,8.8756046,C321
480,1.228541,1.8243817,-3.4284968,8.8947582,C321
481,1.2305419,1.8124107,-3.4261026,8.9234886,C321
482,1.2325418,1.8004397,-3.4261026,8.9546137,C321
483,1.2345415,1.7884687,-3.4261026,8.9905262,C321
484,1.2365415,1.7788919,-3.4261026,9.0216513,C321
485,1.2385415,1.769315,-3.4284968,9.0551701,C321
486,1.2405414,1.7621324,-3.4380736,9.0862951,C321
487,1.2425405,1.757344,-3.4476504,9.1126308,C321
488,1.2445397,1.757344,-3.4572272,9.1341791,C321
489,1.2465397,1.7621324,-3.4620156,9.150938,C321
490,1.24854,1.7645266,-3.4644098,9.1605148,C321
491,1.2505401,1.769315,-3.4691982,9.1629095,C321
492,1.2525399,1.769315,-3.4739866,9.1557264,C321
493,1.2545399,1.7717092,-3.4739866,9.1461496,C321
494,1.2565399,1.7788919,-3.4715924,9.1317844,C321
495,1.25854,1.7812861,-3.4644098,9.1126308,C321
496,1.26054,1.7812861,-3.4572272,9.0862951,C321
497,1.2625409,1.7836803,-3.4500446,9.0599585,C321
498,1.2645409,1.7884687,-3.442862,9.0288343,C321
499,1.2665409,1.7908629,-3.4332852,8.9977093,C321
500,1.2685409,1.7956513,-3.4284968,8.9594021,C321
501,1.2705409,1.8028339,-3.4332852,8.9210949,C321
502,1.2725409,1.8100165,-3.442862,8.8851814,C321
503,1.2745408,1.8243817,-3.4572272,8.8492689,C321
504,1.2765408,1.8387469,-3.4835634,8.8181438,C321
505,1.2785408,1.8531121,-3.5122938,8.7965965,C321
506,1.2805407,1.8579005,-3.5529952,8.7894135,C321
507,1.2825398,1.8626889,-3.5865142,8.7846251,C321
508,1.2845393,1.8602947,-3.6104562,8.7894135,C321
509,1.2865384,1.8507179,-3.6391866,8.8037786,C321
510,1.2885375,1.8387469,-3.6631286,8.8205385,C321
511,1.2905375,1.8171991,-3.6870706,8.8540573,C321
512,1.2925375,1.7956513,-3.70383,8.8875761,C321
513,1.2945378,1.7788919,-3.7205894,8.9210949,C321
514,1.2965379,1.7621324,-3.7325604,8.9594021,C321
515,1.2985379,1.7549498,-3.739743,8.9929209,C321
516,1.3005379,1.7621324,-3.739743,9.0216513,C321
517,1.3025388,1.7741034,-3.739743,9.0431995,C321
518,1.3045397,1.7956513,-3.7373488,9.0575647,C321
519,1.3065397,1.8171991,-3.7301662,9.0671415,C321
520,1.3085393,1.8459295,-3.7205894,9.0623531,C321
521,1.3105393,1.8794483,-3.7086184,9.0192575,C321
522,1.3125392,1.9081788,-3.6990416,9.0623531,C321
523,1.3145392,1.9321208,-3.6942532,8.9785557,C321
524,1.3165392,1.9512744,-3.6774938,8.904335,C321
525,1.3185391,1.9632454,-3.6631286,9.0192575,C321
526,1.3205391,1.9632454,-3.643975,8.8301153,C321
527,1.3225382,1.9680338,-3.6272156,8.7487125,C321
528,1.3245374,1.9728222,-3.6152446,8.7989902,C321
529,1.3265366,1.9512744,-3.6056678,8.7774429,C321
530,1.3285357,1.9416976,-3.5984852,8.6984339,C321
531,1.3305358,1.9249382,-3.5936968,8.7463179,C321
532,1.3325358,1.9081788,-3.5913026,8.7463179,C321
533,1.3345358,1.9033904,-3.5936968,8.6912518,C321
534,1.3365359,1.8986019,-3.5984852,8.6936455,C321
535,1.3385359,1.8938135,-3.608062,8.7104053,C321
536,1.3405359,1.8890251,-3.6224272,8.6840687,C321
537,1.3425372,1.8890251,-3.6367924,8.6912518,C321
538,1.3445381,1.8962077,-3.6511576,8.7104053,C321
539,1.346539,1.8938135,-3.6607344,8.7032223,C321
540,1.3485398,1.8938135,-3.6703112,8.7175875,C321
541,1.3505398,1.8890251,-3.6750996,8.7463179,C321
542,1.3525394,1.8866309,-3.6774938,8.7535009,C321
543,1.3545394,1.8842367,-3.6774938,8.7750483,C321
544,1.3565393,1.8746599,-3.6727054,8.8037786,C321
545,1.3585393,1.8746599,-3.6631286,8.8181438,C321
546,1.3605393,1.8674773,-3.6487634,8.856451,C321
547,1.3625384,1.8602947,-3.6367924,8.8851814,C321
548,1.3645375,1.8483237,-3.6224272,8.9067297,C321
549,1.3665366,1.8339585,-3.608062,8.9354601,C321
550,1.3685361,1.8195933,-3.5936968,8.9594021,C321
551,1.3705353,1.8052281,-3.58412,8.9809494,C321
552,1.372535,1.7908629,-3.5769374,9.0048914,C321
553,1.374535,1.7741034,-3.5673606,9.0216513,C321
554,1.3765351,1.7645266,-3.560178,9.0288343,C321
555,1.3785351,1.757344,-3.5529952,9.0384111,C321
556,1.3805351,1.745373,-3.5434184,9.0431995,C321
557,1.3825366,1.7381904,-3.53863,9.0431995,C321
558,1.3845375,1.7310078,-3.5338416,9.0431995,C321
559,1.3865383,1.721431,-3.5314474,9.0384111,C321
560,1.3885391,1.7142484,-3.526659,9.0336227,C321
561,1.3905391,1.70946,-3.5218706,9.0288343,C321
562,1.3925391,1.7046716,-3.5170822,9.0216513,C321
563,1.394539,1.6998832,-3.5098996,9.0168629,C321
564,1.396539,1.6950948,-3.5051112,9.0168629,C321
565,1.398539,1.6950948,-3.4979286,9.0144691,C321
566,1.400539,1.6950948,-3.490746,9.0216513,C321
567,1.4025376,1.6950948,-3.4883518,9.0312281,C321
568,1.404538,1.697489,-3.4883518,9.0455933,C321
569,1.406538,1.697489,-3.4883518,9.0647469,C321
570,1.408538,1.6998832,-3.4883518,9.0862951,C321
571,1.4105381,1.6998832,-3.4859576,9.1078424,C321
572,1.412538,1.6998832,-3.4859576,9.1317844,C321
573,1.4145381,1.6998832,-3.4859576,9.1533327,C321
574,1.4165381,1.7022774,-3.490746,9.17488,C321
575,1.4185381,1.7046716,-3.490746,9.1940336,C321
576,1.4205381,1.70946,-3.4955344,9.2107935,C321
577,1.422539,1.7166426,-3.4979286,9.222764,C321
578,1.4245396,1.7286136,-3.4979286,9.2323408,C321
579,1.4265405,1.7429788,-3.4979286,9.2299471,C321
580,1.4285414,1.7621324,-3.502717,9.2203703,C321
581,1.4305422,1.7812861,-3.5075054,9.2036104,C321
582,1.4325425,1.7980455,-3.5098996,9.1844568,C321
583,1.4345424,1.8195933,-3.5051112,9.1605148,C321
584,1.4365424,1.8363527,-3.502717,9.1389675,C321
585,1.4385424,1.8483237,-3.4979286,9.1150255,C321
586,1.4405423,1.8555063,-3.4931402,9.0839005,C321
587,1.4425409,1.8579005,-3.4883518,9.0575647,C321
588,1.44454,1.8555063,-3.4811692,9.0288343,C321
589,1.44654,1.8531121,-3.4644098,9.0024977,C321
590,1.44854,1.8507179,-3.4476504,8.9809494,C321
591,1.45054,1.8411411,-3.430891,8.9617958,C321
592,1.45254,1.8339585,-3.4141316,8.9474306,C321
593,1.4545401,1.8291701,-3.3973722,8.9378538,C321
594,1.4565401,1.8291701,-3.3854012,8.928277,C321
595,1.4585401,1.8339585,-3.3734303,8.9210949,C321
596,1.4605402,1.8411411,-3.3686419,8.9115181,C321
597,1.4625411,1.8459295,-3.3638535,8.9019413,C321
598,1.4645407,1.8579005,-3.3614593,8.8899698,C321
599,1.4665407,1.8698715,-3.3614593,8.8779993,C321
600,1.4685407,1.8794483,-3.3686419,8.8660278,C321
601,1.4705406,1.8842367,-3.3758245,8.8492689,C321
602,1.472541,1.8890251,-3.3806129,8.8372974,C321
603,1.474541,1.8938135,-3.3877954,8.8253269,C321
604,1.476541,1.8962077,-3.3973722,8.8133554,C321
605,1.478541,1.8986019,-3.4045548,8.8037786,C321
606,1.480541,1.8962077,-3.406949,8.7965965,C321
607,1.4825402,1.8938135,-3.406949,8.7965965,C321
608,1.4845395,1.8938135,-3.4093432,8.7989902,C321
609,1.4865387,1.8914193,-3.4117374,8.8013849,C321
610,1.4885379,1.8914193,-3.41892,8.808567,C321
611,1.4905379,1.8890251,-3.4237084,8.8157501,C321
612,1.492538,1.8866309,-3.4284968,8.8229322,C321
613,1.494538,1.8794483,-3.4356794,8.8349037,C321
614,1.496538,1.8722657,-3.442862,8.8444805,C321
615,1.498538,1.8650831,-3.4500446,8.856451,C321
616,1.500538,1.8531121,-3.4572272,8.8732109,C321
617,1.5025389,1.8387469,-3.4644098,8.8899698,C321
618,1.5045397,1.8291701,-3.4763808,8.9115181,C321
619,1.5065397,1.8195933,-3.4883518,8.9378538,C321
620,1.5085397,1.8100165,-3.4979286,8.9594021,C321
621,1.5105397,1.8052281,-3.5098996,8.9857378,C321
622,1.5125398,1.8004397,-3.5218706,9.0120745,C321
623,1.5145398,1.7980455,-3.5314474,9.0360165,C321
624,1.5165398,1.7956513,-3.53863,9.0599585,C321
625,1.5185397,1.7956513,-3.5482068,9.0839005,C321
626,1.5205397,1.7980455,-3.560178,9.1006603,C321
627,1.5225389,1.7980455,-3.5697548,9.1150255,C321
628,1.524538,1.7956513,-3.5793316,9.1246023,C321
629,1.5265372,1.7980455,-3.58412,9.1317844,C321
630,1.5285363,1.8028339,-3.58412,9.1365728,C321
631,1.5305364,1.8124107,-3.58412,9.1413612,C321
632,1.5325364,1.8219875,-3.58412,9.1461496,C321
633,1.5345364,1.8339585,-3.5793316,9.150938,C321
634,1.5365365,1.8435353,-3.572149,9.150938,C321
635,1.5385365,1.8531121,-3.5673606,9.1485443,C321
636,1.5405365,1.8626889,-3.560178,9.1413612,C321
637,1.5425373,1.8722657,-3.5553896,9.1341791,C321
638,1.5445382,1.8818425,-3.550601,9.126996,C321
639,1.546539,1.8890251,-3.5434184,9.1150255,C321
640,1.5485398,1.8962077,-3.5338416,9.103054,C321
641,1.5505398,1.9009962,-3.5218706,9.0910835,C321
642,1.5525397,1.9057846,-3.5122938,9.0815067,C321
643,1.5545408,1.9081788,-3.5075054,9.0719299,C321
644,1.5565408,1.910573,-3.5051112,9.0647469,C321
645,1.5585409,1.9129672,-3.5051112,9.0599585,C321
646,1.5605409,1.9177556,-3.5075054,9.0527763,C321
647,1.5625401,1.9201498,-3.5098996,9.0455933,C321
648,1.5645392,1.9201498,-3.5122938,9.0384111,C321
649,1.5665384,1.9201498,-3.514688,9.0288343,C321
650,1.5685376,1.9201498,-3.5122938,9.0168629,C321
651,1.5705367,1.9201498,-3.5098996,9.0048914,C321
652,1.5725366,1.9177556,-3.5075054,8.9905262,C321
653,1.5745366,1.910573,-3.5098996,8.9713726,C321
654,1.5765366,1.9033904,-3.5122938,8.952219,C321
655,1.5785366,1.8938135,-3.5170822,8.9378538,C321
656,1.5805366,1.8842367,-3.5194764,8.9258833,C321
657,1.5825373,1.8770541,-3.5194764,8.9139118,C321
658,1.5845382,1.8722657,-3.5194764,8.904335,C321
659,1.5865391,1.8650831,-3.5194764,8.9019413,C321
660,1.5885399,1.8555063,-3.5194764,8.8995466,C321
661,1.5905399,1.8507179,-3.5218706,8.8971529,C321
662,1.5925398,1.8435353,-3.5218706,8.8971529,C321
663,1.5945398,1.8363527,-3.5218706,8.8995466,C321
664,1.5965398,1.8291701,-3.5218706,8.9067297,C321
665,1.5985397,1.8243817,-3.5194764,8.9187002,C321
666,1.6005397,1.8195933,-3.5218706,8.9354601,C321
667,1.6025388,1.8171991,-3.5242648,8.9570074,C321
668,1.6045388,1.8195933,-3.526659,8.9785557,C321
669,1.6065389,1.8243817,-3.5314474,9.000103,C321
670,1.6085389,1.8315643,-3.5362358,9.0192575,C321
671,1.6105389,1.8363527,-3.5434184,9.0408049,C321
672,1.612539,1.8411411,-3.5458126,9.0575647,C321
673,1.6145379,1.8435353,-3.5482068,9.0695353,C321
674,1.6165379,1.8435353,-3.5482068,9.0815067,C321
675,1.6185379,1.8435353,-3.5458126,9.0934772,C321
676,1.6205379,1.8459295,-3.5410242,9.103054,C321
677,1.6225387,1.8483237,-3.5362358,9.1102371,C321
678,1.6245395,1.8507179,-3.5290532,9.1126308,C321
679,1.6265404,1.8531121,-3.5218706,9.1126308,C321
680,1.6285412,1.8579005,-3.514688,9.1150255,C321
681,1.630542,1.8650831,-3.5075054,9.1174192,C321
682,1.6325416,1.8722657,-3.5003228,9.1198139,C321
683,1.6345416,1.8794483,-3.4955344,9.126996,C321
684,1.6365416,1.8890251,-3.4931402,9.1341791,C321
685,1.6385416,1.8962077,-3.4931402,9.1389675,C321
686,1.6405416,1.9033904,-3.490746,9.1413612,C321
687,1.6425407,1.9081788,-3.4883518,9.1437559,C321
688,1.6445399,1.9129672,-3.4883518,9.1437559,C321
689,1.6465399,1.9177556,-3.4859576,9.1413612,C321
690,1.6485399,1.9177556,-3.4859576,9.1341791,C321
691,1.6505399,1.9177556,-3.4835634,9.1246023,C321
692,1.6525399,1.9201498,-3.4811692,9.1150255,C321
693,1.6545399,1.9201498,-3.4763808,9.103054,C321
694,1.65654,1.922544,-3.4715924,9.0910835,C321
695,1.65854,1.9249382,-3.466804,9.0767183,C321
696,1.66054,1.9273324,-3.4596214,9.0647469,C321
697,1.6625409,1.9297266,-3.454833,9.0551701,C321
698,1.664541,1.9321208,-3.4524388,9.0431995,C321
699,1.666541,1.934515,-3.4500446,9.0288343,C321
700,1.6685409,1.9393034,-3.4452562,9.0144691,C321
701,1.6705409,1.9440918,-3.4404678,8.9977093,C321
702,1.6725409,1.9488802,-3.4356794,8.9785557,C321
703,1.6745408,1.9536686,-3.430891,8.9617958,C321
704,1.6765408,1.9560628,-3.4284968,8.9450369,C321
705,1.6785408,1.9560628,-3.4261026,8.9306717,C321
706,1.6805408,1.9512744,-3.4237084,8.9210949,C321
707,1.6825399,1.9416976,-3.4261026,8.9115181,C321
708,1.6845391,1.9321208,-3.4284968,8.9019413,C321
709,1.6865382,1.9249382,-3.430891,8.8899698,C321
710,1.6885374,1.9153614,-3.430891,8.8827877,C321
711,1.6905374,1.9033904,-3.430891,8.8779993,C321
712,1.6925375,1.8890251,-3.430891,8.8732109,C321
713,1.6945375,1.8770541,-3.430891,8.880393,C321
714,1.6965375,1.8674773,-3.430891,8.8875761,C321
715,1.6985376,1.8626889,-3.4332852,8.8971529,C321
716,1.7005376,1.8579005,-3.430891,8.9139118,C321
717,1.7025384,1.8555063,-3.430891,8.9258833,C321
718,1.7045393,1.8531121,-3.4332852,8.9402485,C321
719,1.7065393,1.8531121,-3.4356794,8.9570074,C321
720,1.7085393,1.8555063,-3.4356794,8.976161,C321
721,1.7105393,1.8650831,-3.4380736,8.9977093,C321
722,1.7125393,1.8746599,-3.4404678,9.0144691,C321
723,1.7145392,1.8842367,-3.4404678,9.0288343,C321
724,1.7165392,1.8938135,-3.4356794,9.0408049,C321
725,1.7185392,1.9033904,-3.4332852,9.0527763,C321
726,1.7205391,1.910573,-3.430891,9.0647469,C321
727,1.7225382,1.9177556,-3.4284968,9.0743237,C321
728,1.7245373,1.922544,-3.4284968,9.0815067,C321
729,1.7265364,1.9273324,-3.4284968,9.0886889,C321
730,1.7285356,1.934515,-3.4284968,9.1006603,C321
731,1.7305356,1.9416976,-3.4261026,9.1150255,C321
732,1.7325356,1.946486,-3.4237084,9.1246023,C321
733,1.7345357,1.9488802,-3.41892,9.1317844,C321
734,1.7365357,1.958457,-3.41892,9.1413612,C321
735,1.7385357,1.9656396,-3.4165258,9.1485443,C321
736,1.7405354,1.9680338,-3.4141316,9.1557264,C321
737,1.7425363,1.970428,-3.4141316,9.1629095,C321
738,1.7445372,1.9728222,-3.4165258,9.1676979,C321
739,1.746538,1.9752164,-3.41892,9.1772747,C321
740,1.7485388,1.9776106,-3.41892,9.1892452,C321
741,1.7505388,1.9776106,-3.4213142,9.2083988,C321
742,1.7525395,1.9800048,-3.4237084,9.2275524,C321
743,1.7545395,1.9847932,-3.4261026,9.2514944,C321
744,1.7565394,1.9895816,-3.4284968,9.2754364,C321
745,1.7585394,1.9871874,-3.4380736,9.2993784,C321
746,1.7605394,1.9895816,-3.442862,9.3233204,C321
747,1.7625386,1.9919758,-3.4476504,9.342474,C321
748,1.7645378,1.9919758,-3.4524388,9.3616276,C321
749,1.766537,1.99437,-3.4596214,9.3807812,C321
750,1.7685361,1.99437,-3.4620156,9.397541,C321
751,1.7705353,1.9919758,-3.466804,9.4190884,C321
752,1.7725353,1.9847932,-3.4739866,9.438242,C321
753,1.7745353,1.9776106,-3.478775,9.4550018,C321
754,1.7765353,1.9728222,-3.4835634,9.4741554,C321
755,1.7785353,1.9656396,-3.490746,9.493309,C321
756,1.7805353,1.9560628,-3.4955344,9.5148573,C321
757,1.7825362,1.9512744,-3.5003228,9.5316162,C321
758,1.7845371,1.9488802,-3.502717,9.5435877,C321
759,1.7865379,1.946486,-3.5051112,9.5507698,C321
760,1.7885388,1.9488802,-3.502717,9.5531645,C321
761,1.7905388,1.9560628,-3.5003228,9.5435877,C321
762,1.7925384,1.9656396,-3.5003228,9.5268278,C321
763,1.7945383,1.9871874,-3.4979286,9.4957027,C321
764,1.7965383,2.0159178,-3.4955344,9.4502134,C321
765,1.7985383,2.0470424,-3.490746,9.4023294,C321
766,1.8005386,2.0853498,-3.4835634,9.3400803,C321
767,1.8025377,2.1212628,-3.4763808,9.2754364,C321
768,1.8045377,2.15957,-3.466804,9.2036104,C321
769,1.8065377,2.1930888,-3.454833,9.1293907,C321
770,1.8085377,2.2218192,-3.4380736,9.0503817,C321
771,1.8105377,2.2409728,-3.4117374,8.9713726,C321
772,1.8125374,2.255338,-3.3877954,8.8995466,C321
773,1.8145374,2.267309,-3.3614593,8.8349037,C321
774,1.8165375,2.2720973,-3.3351231,8.7822313,C321
775,1.8185375,2.2720973,-3.301604,8.7343473,C321
776,1.8205375,2.2720973,-3.2704794,8.7008286,C321
777,1.8225383,2.2697031,-3.241749,8.681675,C321
778,1.8245392,2.2697031,-3.2106245,8.6768866,C321
779,1.82654,2.2744915,-3.1866825,8.6792803,C321
780,1.8285408,2.2864625,-3.1627405,8.6912518,C321
781,1.8305417,2.3008277,-3.1435869,8.7104053,C321
782,1.8325416,2.3151929,-3.1292217,8.7295589,C321
783,1.8345417,2.3343468,-3.1172507,8.7558947,C321
784,1.8365416,2.3558946,-3.1052797,8.7846251,C321
785,1.8385416,2.3774424,-3.0933087,8.8109617,C321
786,1.8405417,2.396596,-3.0885203,8.8372974,C321
787,1.8425408,2.4109612,-3.0837319,8.8588457,C321
788,1.84454,2.4229321,-3.0837319,8.8756046,C321
789,1.84654,2.4277205,-3.0861261,8.8875761,C321
790,1.8485401,2.4253263,-3.0909145,8.8923645,C321
791,1.8505401,2.4157495,-3.1028855,8.8947582,C321
792,1.8525405,2.4037786,-3.1148565,8.8947582,C321
793,1.8545405,2.3918076,-3.1244333,8.8899698,C321
794,1.8565405,2.3798366,-3.1340101,8.8851814,C321
795,1.8585405,2.3654714,-3.1435869,8.8779993,C321
796,1.8605405,2.348712,-3.1507695,8.8684225,C321
797,1.8625414,2.3343468,-3.1579521,8.8588457,C321
798,1.8645414,2.3199813,-3.1651347,8.8540573,C321
799,1.8665414,2.3080103,-3.1723173,8.8516626,C321
800,1.8685414,2.2936451,-3.1794999,8.8516626,C321
801,1.8705413,2.2816741,-3.1842883,8.856451,C321
802,1.8725413,2.2697031,-3.1890767,8.8612394,C321
803,1.8745412,2.2601264,-3.1914709,8.8660278,C321
804,1.8765421,2.2529438,-3.1866825,8.8684225,C321
805,1.878542,2.2409728,-3.1818941,8.8708162,C321
806,1.880542,2.2290018,-3.1794999,8.8779993,C321
807,1.8825412,2.219425,-3.1747115,8.8851814,C321
808,1.8845403,2.2146366,-3.1675289,8.8971529,C321
809,1.8865395,2.2122424,-3.1627405,8.9067297,C321
810,1.8885386,2.2170308,-3.1507695,8.9163065,C321
811,1.8905387,2.2266076,-3.1364043,8.9306717,C321
812,1.8925387,2.2385786,-3.1220391,8.9474306,C321
813,1.8945387,2.2577322,-3.1076739,8.9689789,C321
814,1.8965388,2.2792799,-3.0909145,8.9929209,C321
815,1.8985388,2.3008277,-3.0765493,9.0168629,C321
816,1.9005388,2.3295584,-3.0597897,9.0455933,C321
817,1.9025396,2.3630772,-3.0430303,9.0743237,C321
818,1.9045405,2.3942018,-3.0286651,9.1006603,C321
819,1.9065404,2.4301147,-3.0166941,9.126996,C321
820,1.9085404,2.4636335,-3.0023289,9.1533327,C321
821,1.9105404,2.4947581,-2.9879637,9.1772747,C321
822,1.9125399,2.5210943,-2.9735985,9.1964283,C321
823,1.9145399,2.5498247,-2.9664159,9.2083988,C321
824,1.9165399,2.5785553,-2.9592333,9.2155819,C321
825,1.9185399,2.6144683,-2.9496565,9.2275524,C321
826,1.92054,2.6551697,-2.9400797,9.2275524,C321
827,1.9225391,2.6934769,-2.9305029,9.2203703,C321
828,1.9245383,2.7341783,-2.9281087,9.1940336,C321
829,1.9265375,2.7724855,-2.9281087,9.1581211,C321
830,1.9285366,2.8036101,-2.9352913,9.1054487,C321
831,1.9305365,2.8227639,-2.9520507,9.0360165,C321
832,1.9325365,2.8275523,-2.9783869,8.9570074,C321
833,1.9345365,2.8275523,-3.0047231,8.8827877,C321
834,1.9365356,2.8203697,-3.0286651,8.8037786,C321
835,1.9385356,2.8083985,-3.0526071,8.7199821,C321
836,1.9405356,2.7916391,-3.0693667,8.633791,C321
837,1.9425364,2.7772739,-3.0837319,8.5571766,C321
838,1.9445373,2.7676971,-3.0909145,8.4829559,C321
839,1.9465381,2.7629087,-3.0980971,8.4159184,C321
840,1.948539,2.7581203,-3.1052797,8.3560629,C321
841,1.9505389,2.7557261,-3.1100681,8.2986021,C321
842,1.9525386,2.7557261,-3.1124623,8.2507181,C321
843,1.9545386,2.7533319,-3.1172507,8.2124109,C321
844,1.9565385,2.7509377,-3.1268275,8.1836805,C321
845,1.9585385,2.7533319,-3.1316159,8.1645269,C321
846,1.9605385,2.7581203,-3.1364043,8.1621332,C321
847,1.9625376,2.7629087,-3.1411927,8.1669216,C321
848,1.9645368,2.7676971,-3.1507695,8.1860752,C321
849,1.9665359,2.7748797,-3.1675289,8.219594,C321
850,1.9685351,2.7820623,-3.1794999,8.2579012,C321
851,1.9705343,2.7844565,-3.1914709,8.3273325,C321
852,1.9725347,2.7844565,-3.2034419,8.3943701,C321
853,1.9745351,2.7820623,-3.2154129,8.4614077,C321
854,1.9765352,2.7676971,-3.2321723,8.5475998,C321
855,1.9785352,2.7365725,-3.25372,8.6529446,C321
856,1.9805351,2.6958711,-3.277662,8.7726545,C321
857,1.982536,2.6575639,-3.2992098,8.8875761,C321
858,1.9845368,2.6240451,-3.3207579,9.0120745,C321
859,1.9865376,2.5953147,-3.3351231,9.1293907,C321
860,1.9885385,2.5689783,-3.3446999,9.2562828,C321
861,1.9905386,2.5474305,-3.3518825,9.3879642,C321
862,1.9925382,2.5306711,-3.3566709,9.5052805,C321
863,1.9945382,2.5187001,-3.3542767,9.6178074,C321
864,1.9965383,2.5115175,-3.3470941,9.7255468,C321
865,1.9985383,2.5091233,-3.3375173,9.8165264,C321
866,2.0005383,2.5187001,-3.3255463,9.8979292,C321
867,2.0025375,2.5306711,-3.3135753,9.9601784,C321
868,2.0045367,2.5498247,-3.3039982,10.005669,C321
869,2.0065367,2.5785553,-3.2968156,10.032004,C321
870,2.0085367,2.6072857,-3.2920272,10.041581,C321
871,2.0105368,2.6384103,-3.2872388,10.039187,C321
872,2.0125371,2.6671407,-3.2800562,10.036793,C321
873,2.0145371,2.6910827,-3.2632968,10.036793,C321
874,2.0165371,2.7126305,-3.2465374,10.027216,C321
875,2.0185371,2.7246015,-3.2249897,9.9913034,C321
876,2.0205371,2.7341783,-3.2010477,9.9338417,C321
877,2.0225379,2.7389667,-3.1771057,9.8691988,C321
878,2.0245388,2.7341783,-3.1483753,9.7782192,C321
879,2.0265396,2.7246015,-3.1172507,9.6680861,C321
880,2.0285404,2.7198131,-3.0909145,9.5603466,C321
881,2.0305413,2.7269957,-3.0645781,9.4406366,C321
882,2.0325412,2.7413609,-3.0310593,9.3161383,C321
883,2.0345408,2.7557261,-2.9999347,9.2083988,C321
884,2.0365408,2.7772739,-2.9688101,9.1102371,C321
885,2.0385407,2.8060043,-2.9400797,9.0168629,C321
886,2.0405407,2.8419175,-2.9161377,8.928277,C321
887,2.0425399,2.8778305,-2.8969841,8.8540573,C321
888,2.044539,2.9113493,-2.8802247,8.7846251,C321
889,2.0465391,2.9352913,-2.8682537,8.7271643,C321
890,2.0485391,2.9640217,-2.8562827,8.6720982,C321
891,2.0505391,2.9903579,-2.8467059,8.6218195,C321
892,2.0525393,3.0142999,-2.8371291,8.5787239,C321
893,2.0545393,3.0358477,-2.8275523,8.5356283,C321
894,2.0565393,3.0502129,-2.8179753,8.4877443,C321
895,2.0585393,3.0597897,-2.8107927,8.4422541,C321
896,2.0605392,3.0645781,-2.7988217,8.3919764,C321
897,2.0625401,3.0669725,-2.7868507,8.3488808,C321
898,2.0645409,3.0717609,-2.7772739,8.3105736,C321
899,2.0665409,3.0765493,-2.7605145,8.2770548,C321
900,2.0685408,3.0861261,-2.7461493,8.2507181,C321
901,2.0705408,3.0957029,-2.7317841,8.2315645,C321
902,2.0725408,3.1076739,-2.7150247,8.2171993,C321
903,2.0745408,3.1220391,-2.6958711,8.2052288,C321
904,2.0765409,3.1340101,-2.6791117,8.195652,C321
905,2.0785409,3.1435869,-2.6599581,8.195652,C321
906,2.0805409,3.1531637,-2.6384103,8.2076225,C321
907,2.0825401,3.1627405,-2.6192567,8.2243824,C321
908,2.0845393,3.1747115,-2.6048915,8.2555065,C321
909,2.0865384,3.1842883,-2.5905263,8.2890253,C321
910,2.0885376,3.1890767,-2.5809495,8.3369093,C321
911,2.0905376,3.1866825,-2.5737667,8.3991585,C321
912,2.0925376,3.1818941,-2.5689783,8.4638023,C321
913,2.0945376,3.1699231,-2.5689783,8.5404167,C321
914,2.0965376,3.1483753,-2.5737667,8.6242142,C321
915,2.0985376,3.1244333,-2.5785553,8.7008286,C321
916,2.1005376,3.0861261,-2.5881321,8.7965965,C321
917,2.1025384,3.0478187,-2.5953147,8.8851814,C321
918,2.1045393,3.0119057,-2.6024973,8.9665842,C321
919,2.1065392,2.9807811,-2.6048915,9.0503817,C321
920,2.1085392,2.9568391,-2.6048915,9.1389675,C321
921,2.1105392,2.9376855,-2.6001031,9.222764,C321
922,2.1125391,2.9233203,-2.5929205,9.29459,C321
923,2.114539,2.9113493,-2.5833437,9.3688107,C321
924,2.116539,2.9041667,-2.5713725,9.4334536,C321
925,2.118539,2.9017725,-2.5522189,9.4885206,C321
926,2.120539,2.9041667,-2.5330653,9.5316162,C321
927,2.1225382,2.9137435,-2.5163059,9.5603466,C321
928,2.1245374,2.9305029,-2.4947581,9.5699234,C321
929,2.1265365,2.9568391,-2.4756045,9.5579529,C321
930,2.1285357,2.9831753,-2.4588451,9.5364046,C321
931,2.1305357,3.0238767,-2.4396915,9.4813375,C321
932,2.1325358,3.0621839,-2.4229321,9.4190884,C321
933,2.1345358,3.1004913,-2.4061728,9.3520508,C321
934,2.1365357,3.1411927,-2.3942018,9.2610712,C321
935,2.1385357,3.1818941,-2.384625,9.1485443,C321
936,2.1405357,3.2178071,-2.3750482,9.0192575,C321
937,2.1425365,3.2465374,-2.3702598,8.8995466,C321
938,2.1445373,3.2752678,-2.3678656,8.7726545,C321
939,2.1465382,3.301604,-2.3654714,8.6601267,C321
940,2.148539,3.3231521,-2.3654714,8.5475998,C321
941,2.150539,3.3399115,-2.3678656,8.4446487,C321
942,2.1525386,3.3542767,-2.3702598,8.363246,C321
943,2.1545387,3.3686419,-2.372654,8.2938137,C321
944,2.1565387,3.3758245,-2.3750482,8.2387476,C321
945,2.1585383,3.3806129,-2.3774424,8.195652,C321
946,2.1605384,3.3758245,-2.3798366,8.1693153,C321
947,2.1625375,3.3638535,-2.3822308,8.1549501,C321
948,2.1645367,3.3542767,-2.384625,8.1453733,C321
949,2.1665359,3.3399115,-2.3918076,8.1453733,C321
950,2.168535,3.3255463,-2.3989902,8.1597385,C321
951,2.1705341,3.3087866,-2.4037786,8.1908636,C321
952,2.1725345,3.2944214,-2.408567,8.2267761,C321
953,2.1745345,3.2800562,-2.4157495,8.2770548,C321
954,2.1765345,3.2704794,-2.4229321,8.3321209,C321
955,2.1785345,3.2609026,-2.4301147,8.3991585,C321
956,2.1805344,3.2561142,-2.4325089,8.4853497,C321
957,2.1825353,3.25372,-2.4325089,8.5547819,C321
958,2.1845361,3.2561142,-2.4349031,8.6361847,C321
959,2.1865369,3.2609026,-2.4372973,8.7223759,C321
960,2.1885378,3.265691,-2.4396915,8.8013849,C321
961,2.1905377,3.2632968,-2.4372973,8.880393,C321
962,2.1925373,3.2561142,-2.4301147,8.9546137,C321
963,2.1945373,3.2489316,-2.4229321,9.0192575,C321
964,2.1965373,3.2393548,-2.4157495,9.0719299,C321
965,2.1985373,3.2297781,-2.408567,9.1102371,C321
966,2.2005373,3.2225955,-2.4013844,9.1389675,C321
967,2.2025365,3.2178071,-2.3942018,9.1605148,C321
968,2.2045365,3.2225955,-2.3894134,9.1772747,C321
969,2.2065365,3.2345665,-2.3870192,9.1892452,C321
970,2.2085366,3.25372,-2.384625,9.1940336,C321
971,2.2105366,3.2752678,-2.384625,9.1892452,C321
972,2.212537,3.2992098,-2.384625,9.1820631,C321
973,2.2145369,3.3279405,-2.384625,9.1629095,C321
974,2.2165369,3.3566709,-2.384625,9.1365728,C321
975,2.2185373,3.3854012,-2.3798366,9.1102371,C321
976,2.2205372,3.4093432,-2.3750482,9.0791121,C321
977,2.2225378,3.4380736,-2.3654714,9.0527763,C321
978,2.2245386,3.4644098,-2.3558946,9.0312281,C321
979,2.2265395,3.4931402,-2.348712,9.0144691,C321
980,2.2285403,3.5194764,-2.3415294,9.000103,C321
981,2.2305412,3.5553896,-2.3319526,9.0024977,C321
982,2.2325413,3.5865142,-2.3199813,9.0096798,C321
983,2.2345413,3.6128504,-2.3104045,9.0192575,C321
984,2.2365413,3.6391866,-2.3008277,9.0312281,C321
985,2.2385414,3.6655228,-2.2936451,9.0503817,C321
986,2.2405414,3.6870706,-2.2864625,9.0719299,C321
987,2.2425406,3.7062242,-2.2768857,9.0910835,C321
988,2.2445397,3.7229836,-2.267309,9.1078424,C321
989,2.2465397,3.739743,-2.2601264,9.1198139,C321
990,2.2485397,3.7565024,-2.2577322,9.1365728,C321
991,2.2505397,3.7660792,-2.2601264,9.1557264,C321
992,2.2525392,3.7732618,-2.2649148,9.17488,C321
993,2.2545392,3.7828386,-2.2744915,9.1940336,C321
994,2.2565392,3.787627,-2.2888567,9.2060051,C321
995,2.2585392,3.787627,-2.3056161,9.2131872,C321
996,2.2605392,3.775656,-2.3271639,9.2107935,C321
997,2.2625397,3.763685,-2.3463178,9.2060051,C321
998,2.2645397,3.751714,-2.3630772,9.198822,C321
999,2.2665397,3.7325604,-2.3774424,9.1820631,C321
1000,2.2685396,3.7086184,-2.3870192,9.1557264,C321
1001,2.2705396,3.6822822,-2.3918076,9.126996,C321
1002,2.2725396,3.655946,-2.3918076,9.0982656,C321
1003,2.2745396,3.6248214,-2.3870192,9.0671415,C321
1004,2.2765396,3.596091,-2.3798366,9.0360165,C321
1005,2.2785396,3.5649664,-2.3630772,9.000103,C321
1006,2.2805396,3.5362358,-2.3319526,8.9713726,C321
1007,2.2825391,3.5098996,-2.2960393,8.9546137,C321
1008,2.2845382,3.4811692,-2.2577322,8.9426422,C321
1009,2.2865374,3.4500446,-2.2361844,8.9091234,C321
1010,2.2885366,3.4284968,-2.2266076,8.8684225,C321
1011,2.2905366,3.4237084,-2.2385786,8.8277206,C321
1012,2.2925365,3.442862,-2.2744915,8.7918081,C321
1013,2.2945365,3.4715924,-2.3127987,8.7582893,C321
1014,2.2965365,3.5170822,-2.3511062,8.7199821,C321
1015,2.2985364,3.5697548,-2.3798366,8.6720982,C321
1016,2.3005364,3.6343982,-2.4037786,8.6170311,C321
1017,2.3025371,3.6942532,-2.4205379,8.5643587,C321
1018,2.3045379,3.7565024,-2.4301147,8.5092916,C321
1019,2.3065379,3.8115692,-2.4349031,8.4590139,C321
1020,2.308538,3.857059,-2.4253263,8.4207067,C321
1021,2.310538,3.8905778,-2.4061728,8.3967648,C321
1022,2.3125392,3.9121256,-2.384625,8.3847933,C321
1023,2.3145392,3.916914,-2.3535004,8.3919764,C321
1024,2.3165393,3.9025488,-2.3271639,8.4159184,C321
1025,2.3185393,3.881001,-2.3008277,8.4470425,C321
1026,2.3205393,3.845088,-2.2768857,8.5045033,C321
1027,2.3225388,3.8067808,-2.2577322,8.5715418,C321
1028,2.3245379,3.7612908,-2.2409728,8.6625214,C321
1029,2.3265371,3.715801,-2.2242134,8.7678661,C321
1030,2.3285362,3.6727054,-2.207454,8.8660278,C321
1031,2.3305362,3.6343982,-2.1859062,8.9905262,C321
1032,2.3325362,3.6056678,-2.1667526,9.1054487,C321
1033,2.3345362,3.5936968,-2.1428106,9.222764,C321
1034,2.3365362,3.5889084,-2.1212628,9.3257151,C321
1035,2.3385362,3.6008794,-2.0949266,9.4166946,C321
1036,2.3405361,3.6272156,-2.0685902,9.4909143,C321
1037,2.342537,3.6607344,-2.0446482,9.5483761,C321
1038,2.3445378,3.70383,-2.0159178,9.5818949,C321
1039,2.3465386,3.7493198,-1.9871874,9.5818949,C321
1040,2.3485395,3.809175,-1.9632454,9.5627413,C321
1041,2.3505394,3.8738184,-1.9393034,9.5076742,C321
1042,2.352539,3.9264908,-1.9201498,9.421483,C321
1043,2.354539,3.9743748,-1.9033904,9.3305035,C321
1044,2.3565391,4.024653,-1.8914193,9.2131872,C321
1045,2.3585391,4.0653543,-1.8866309,9.0982656,C321
1046,2.3605391,4.1012673,-1.8890251,8.9450369,C321
1047,2.3625384,4.1323919,-1.8890251,8.8037786,C321
1048,2.3645376,4.1611223,-1.8866309,8.6744919,C321
1049,2.3665368,4.1850648,-1.8842367,8.5284462,C321
1050,2.3685359,4.19943,-1.8818425,8.3728228,C321
1051,2.370535,4.2090068,-1.8794483,8.2243824,C321
1052,2.3725345,4.2185836,-1.8746599,8.0950956,C321
1053,2.3745345,4.2257662,-1.8746599,7.9921446,C321
1054,2.3765344,4.2281604,-1.8770541,7.913136,C321
1055,2.3785344,4.211401,-1.8866309,7.84131,C321
1056,2.3805344,4.1683054,-1.9057846,7.7694836,C321
1057,2.3825352,4.1252093,-1.9273324,7.7072344,C321
1058,2.3845361,4.0773253,-1.9560628,7.6593504,C321
1059,2.3865369,4.0390182,-1.982399,7.6401968,C321
1060,2.3885378,4.0054994,-2.0039468,7.6354084,C321
1061,2.3905378,3.9695864,-2.018312,7.6737156,C321
1062,2.3925378,3.940856,-2.030283,7.7215996,C321
1063,2.3945378,3.9240966,-2.0350714,7.7814546,C321
1064,2.3965378,3.928885,-2.0326772,7.8915882,C321
1065,2.3985378,3.964798,-2.0278888,8.0663652,C321
1066,2.4005378,4.024653,-2.0231004,8.3081789,C321
1067,2.4025369,4.0821137,-2.0231004,8.5452051,C321
1068,2.404537,4.1371803,-2.030283,8.7918081,C321
1069,2.406537,4.1826706,-2.0374656,9.0096798,C321
1070,2.408537,4.2161894,-2.0518308,9.2275524,C321
1071,2.4105371,4.2066126,-2.0805612,9.4478188,C321
1072,2.4125375,4.1730938,-2.1164744,9.6489325,C321
1073,2.4145375,4.1084499,-2.15957,9.8668041,C321
1074,2.4165375,4.0270472,-2.1930888,10.096648,C321
1075,2.4185375,3.9480386,-2.2146366,10.300155,C321
1076,2.4205375,3.8786068,-2.2026656,10.513239,C321
1077,2.4225382,3.8283286,-2.1859062,10.692804,C321
1078,2.424539,3.7972038,-2.1619642,10.843638,C321
1079,2.4265398,3.8019924,-2.123657,10.960955,C321
1080,2.4285407,3.8426938,-2.078167,11.030387,C321
1081,2.4305415,3.9073372,-2.0326772,11.042357,C321
1082,2.4325417,3.9743748,-1.9919758,11.023204,C321
1083,2.4345418,4.0653543,-1.9536686,10.937013,C321
1084,2.4365418,4.1515455,-1.922544,10.82688,C321
1085,2.4385418,4.2401314,-1.8938135,10.649709,C321
1086,2.4405419,4.3215342,-1.8698715,10.422259,C321
1087,2.442541,4.3861775,-1.8555063,10.197205,C321
1088,2.4445402,4.4340615,-1.8435353,9.931448,C321
1089,2.4465402,4.4603977,-1.8291701,9.6345673,C321
1090,2.4485403,4.4747629,-1.8171991,9.3544455,C321
1091,2.4505403,4.4747629,-1.7956513,9.0623531,C321
1092,2.4525399,4.4723687,-1.7717092,8.7702599,C321
1093,2.4545399,4.4699745,-1.7477672,8.5116863,C321
1094,2.4565399,4.4651861,-1.7142484,8.2579012,C321
1095,2.4585399,4.4603977,-1.6759412,8.0184803,C321
1096,2.4605399,4.4651861,-1.6424223,7.8149738,C321
1097,2.4625407,4.4771571,-1.6160861,7.654562,C321
1098,2.4645407,4.5034933,-1.6041151,7.5444288,C321
1099,2.4665407,4.5370121,-1.6017209,7.4654202,C321
1100,2.4685406,4.5872903,-1.6208745,7.4223247,C321
1101,2.4705406,4.6495395,-1.6567876,7.4007769,C321
1102,2.4725406,4.7165775,-1.697489,7.3888059,C321
1103,2.4745405,4.7955861,-1.7525556,7.3912001,C321
1104,2.4765405,4.8769889,-1.8195933,7.4031711,C321
1105,2.4785405,4.9443259,-1.8842367,7.4199305,C321
1106,2.4805405,4.9778447,-1.9632454,7.4678144,C321
1107,2.4825398,5.0065751,-2.0254946,7.5061216,C321
1108,2.484539,5.0209403,-2.0805612,7.570765,C321
1109,2.4865382,5.0185461,-2.1308396,7.6497736,C321
1110,2.4885374,5.0065751,-2.171541,7.726388,C321
1111,2.4905374,4.9658737,-2.2050598,7.8006086,C321
1112,2.4925375,4.9203839,-2.2361844,7.8580694,C321
1113,2.4945375,4.8722005,-2.2649148,7.9059534,C321
1114,2.4965374,4.8147397,-2.2984335,7.9394722,C321
1115,2.4985374,4.7644615,-2.3319526,7.9586258,C321
1116,2.5005374,4.7333369,-2.372654,7.9682026,C321
1117,2.5025382,4.7165775,-2.4109612,7.9753852,C321
1118,2.504539,4.7237601,-2.4588451,7.9873562,C321
1119,2.506539,4.7429137,-2.5043349,7.9993272,C321
1120,2.508539,4.7907977,-2.5498247,8.0184803,C321
1121,2.510539,4.8602295,-2.5881321,8.0424232,C321
1122,2.512539,4.9299607,-2.6168625,8.0567884,C321
1123,2.514539,5.0161519,-2.6312277,8.0472116,C321
1124,2.5165391,5.1071315,-2.6312277,8.0136919,C321
1125,2.5185391,5.1837459,-2.6264393,7.9705968,C321
1126,2.5205391,5.2316298,-2.6024973,7.8844056,C321
1127,2.5225383,5.257966,-2.5761611,7.7982144,C321
1128,2.5245375,5.2675428,-2.5474305,7.7096286,C321
1129,2.5265366,5.2483892,-2.5187001,7.6090722,C321
1130,2.5285358,5.2148705,-2.4947581,7.51091,C321
1131,2.5305349,5.1741691,-2.4827871,7.4271131,C321
1132,2.5325349,5.1382561,-2.4779987,7.3648639,C321
1133,2.5345345,5.0975547,-2.4779987,7.3361335,C321
1134,2.5365345,5.0544591,-2.4851813,7.3265567,C321
1135,2.5385345,5.0041809,-2.4971523,7.3481045,C321
1136,2.5405345,4.9467201,-2.5187001,7.4247189,C321
1137,2.5425353,4.9012303,-2.5354595,7.486968,C321
1138,2.5445362,4.8578353,-2.5594015,7.5755534,C321
1139,2.546537,4.8219223,-2.5785553,7.6880808,C321
1140,2.5485378,4.7931919,-2.5953147,7.7982144,C321
1141,2.5505377,4.7788267,-2.6144683,7.925107,C321
1142,2.5525368,4.7788267,-2.6216509,8.0615768,C321
1143,2.5545368,4.7907977,-2.6240451,8.1836805,C321
1144,2.5565368,4.8338933,-2.6192567,8.2962084,C321
1145,2.5585365,4.9060187,-2.6120741,8.387188,C321
1146,2.5605365,4.9922099,-2.6024973,8.4446487,C321
1147,2.5625357,5.0712185,-2.5953147,8.4781675,C321
1148,2.5645349,5.1574097,-2.5833437,8.4709845,C321
1149,2.566534,5.2388124,-2.5737667,8.4494371,C321
1150,2.5685332,5.3345809,-2.5617957,8.4063416,C321
1151,2.5705326,5.4471083,-2.5450363,8.3440924,C321
1152,2.572533,5.5596356,-2.5306711,8.2818432,C321
1153,2.5745329,5.6745572,-2.5091233,8.2028341,C321
1154,2.5765329,5.7751136,-2.4732103,8.099884,C321
1155,2.5785328,5.858911,-2.4372973,7.996933,C321
1156,2.5805328,5.9044008,-2.3942018,7.8724346,C321
1157,2.5825336,5.9020066,-2.336741,7.7239938,C321
1158,2.5845345,5.8780646,-2.2768857,7.5803418,C321
1159,2.5865353,5.815815,-2.1978772,7.4199305,C321
1160,2.5885362,5.732018,-2.1021092,7.2714896,C321
1161,2.5905371,5.6649804,-1.9919758,7.1541739,C321
1162,2.5925368,5.6266732,-1.8866309,7.0631943,C321
1163,2.5945371,5.6530094,-1.7812861,7.0081277,C321
1164,2.5965372,5.7128644,-1.6927006,6.9698205,C321
1165,2.5985372,5.8421516,-1.6065093,6.9410901,C321
1166,2.6005372,6.0288992,-1.5298948,6.9051771,C321
1167,2.6025364,6.2180409,-1.4676456,6.8644757,C321
1168,2.6045364,6.4550672,-1.4269443,6.8094091,C321
1169,2.6065364,6.7280059,-1.3958195,6.7519479,C321
1170,2.6085364,6.9865799,-1.3694834,6.6992755,C321
1171,2.6105364,7.2547302,-1.3479356,6.6370263,C321
1172,2.6125373,7.4965448,-1.328782,6.5652003,C321
1173,2.6145373,7.7287822,-1.3144168,6.4933743,C321
1174,2.6165373,7.9442606,-1.3000516,6.4071832,C321
1175,2.6185376,8.1214314,-1.2832921,6.3138094,C321
1176,2.6205375,8.2770548,-1.2689269,6.2132525,C321
1177,2.622538,8.4015532,-1.2593501,6.1174846,C321
1178,2.6245388,8.4997149,-1.2497733,6.0241108,C321
1179,2.6265396,8.5787239,-1.2449849,5.9163718,C321
1180,2.6285405,8.6433678,-1.2497733,5.803844,C321
1181,2.6305411,8.705617,-1.2641385,5.6865282,C321
1182,2.632541,8.7535009,-1.2808979,5.5811834,C321
1183,2.634541,8.7726545,-1.3072342,5.4638677,C321
1184,2.6365411,8.7678661,-1.3311762,5.3537345,C321
1185,2.6385411,8.7151937,-1.3503298,5.234024,C321
1186,2.6405411,8.6218195,-1.3670892,5.1095257,C321
1187,2.6425403,8.5212631,-1.3838485,4.9993925,C321
1188,2.6445395,8.3919764,-1.4077905,4.8937483,C321
1189,2.6465395,8.2411413,-1.4484921,4.8075571,C321
1190,2.6485395,8.1046724,-1.4891934,4.7429137,C321
1191,2.6505395,7.9658084,-1.5658079,4.7189717,C321
1192,2.6525395,7.8460984,-1.6472107,4.7117891,C321
1193,2.6545394,7.7431474,-1.733402,4.7237601,C321
1194,2.6565394,7.642591,-1.8411411,4.7740383,C321
1195,2.6585394,7.51091,-1.9608512,4.8362875,C321
1196,2.6605393,7.3600755,-2.0829554,4.9227781,C321
1197,2.6625402,7.2355766,-2.1883004,5.0209403,C321
1198,2.6645402,7.1613564,-2.2792799,5.1717749,C321
1199,2.6665402,7.1302319,-2.3582888,5.3345809,C321
1200,2.6685402,7.1733274,-2.4229321,5.5572414,C321
1201,2.6705402,7.2738838,-2.4732103,5.8277864,C321
1202,2.6725403,7.3840175,-2.5091233,6.0887542,C321
1203,2.6745403,7.5037274,-2.5330653,6.3592992,C321
1204,2.6765403,7.6018896,-2.5570073,6.5987191,C321
1205,2.6785404,7.666533,-2.5737667,6.7926493,C321
1206,2.6805404,7.6641388,-2.5641899,6.9291191,C321
1207,2.6825401,7.5563998,-2.5378537,7.0105219,C321
1208,2.6845392,7.4079595,-2.4971523,7.0584059,C321
1209,2.6865384,7.2092404,-2.4253263,7.0679827,C321
1210,2.6885375,7.0392523,-2.3558946,7.0775595,C321
1211,2.6905375,6.9339075,-2.3127987,7.0991073,C321
1212,2.6925375,6.8788409,-2.2912509,7.1134725,C321
1213,2.6945375,6.8956003,-2.3223755,7.0871363,C321
1214,2.6965375,6.9339075,-2.372654,7.0344639,C321
1215,2.6985374,7.0224929,-2.4732103,6.9003887,C321
1216,2.7005374,7.1589622,-2.6168625,6.6729393,C321
1217,2.7025382,7.2978263,-2.7605145,6.4239426,C321
1218,2.7045391,7.4582376,-2.9281087,6.0839658,C321
1219,2.706539,7.6258316,-3.0957029,5.6793456,C321
1220,2.708539,7.7790604,-3.241749,5.2914848,C321
1221,2.710539,7.937078,-3.3734303,4.8482585,C321
1222,2.7125394,8.0567884,-3.478775,4.3718123,C321
1223,2.7145394,8.1310081,-3.5625722,3.9360676,C321
1224,2.7165394,8.1429796,-3.6176388,3.4883518,C321
1225,2.7185395,8.0807304,-3.6487634,3.0358477,C321
1226,2.7205395,7.949049,-3.6631286,2.5785553,C321
1227,2.7225387,7.805397,-3.6727054,2.171541,C321
1228,2.7245378,7.654562,-3.6774938,1.8028339,C321
1229,2.726537,7.4845738,-3.6822822,1.3886369,C321
1230,2.7285361,7.3121915,-3.6846764,0.98880529,C321
1231,2.7305352,7.1565681,-3.6822822,0.66319388,C321
1232,2.7325343,7.0416465,-3.6750996,0.41419691,C321
1233,2.7345343,7.0248871,-3.6511576,0.25617957,C321
1234,2.7365343,7.1326261,-3.6104562,0.17956513,C321
1235,2.7385342,7.2906432,-3.5673606,0.1412579,C321
1236,2.7405342,7.5611882,-3.5194764,0.15322891,C321
1237,2.7425346,7.9059534,-3.4763808,0.22744916,C321
1238,2.7445355,8.2507181,-3.4452562,0.32082301,C321
1239,2.7465364,8.6601267,-3.4261026,0.46686932,C321
1240,2.7485373,9.0551701,-3.4165258,0.66798228,C321
1241,2.7505373,9.5914717,-3.406949,0.90261406,C321
1242,2.7525373,10.089465,-3.394978,1.1204864,C321
1243,2.7545374,10.556334,-3.3662477,1.3192052,C321
1244,2.7565374,11.035175,-3.3279405,1.508347,C321
1245,2.7585374,11.482891,-3.2752678,1.661576,C321
1246,2.7605375,11.868357,-3.2082303,1.7525556,C321
1247,2.7625366,12.181997,-3.1411927,1.7932571,C321
1248,2.7645357,12.402264,-3.0645781,1.733402,C321
1249,2.7665349,12.545917,-2.9927521,1.6280571,C321
1250,2.768534,12.541128,-2.9161377,1.4101849,C321
1251,2.7705331,12.366351,-2.8395233,1.0893618,C321
1252,2.7725328,12.134113,-2.7772739,0.76135612,C321
1253,2.7745327,11.760618,-2.7293899,0.36391866,C321
1254,2.7765327,11.279384,-2.7030537,-0.074220255,C321
1255,2.7785327,10.807726,-2.6934769,-0.47884035,C321
1256,2.7805326,10.230723,-2.7341783,-0.92176765,C321
1257,2.7825335,9.7183638,-2.7820623,-1.3024458,C321
1258,2.7845343,9.2610712,-2.8323407,-1.6184803,C321
1259,2.7865351,8.832509,-2.9017725,-1.8650831,C321
1260,2.788536,8.4685907,-2.9951463,-2.0159178,C321
1261,2.7905368,8.1645269,-3.1076739,-2.0470424,C321
1262,2.7925377,7.913136,-3.2202013,-2.0087352,C321
1263,2.7945378,7.678504,-3.3590651,-1.8243817,C321
1264,2.7965378,7.4702086,-3.4979286,-1.5897499,C321
1265,2.7985378,7.264307,-3.6583402,-1.2042835,C321
1266,2.8005379,7.0560117,-3.8307228,-0.68713588,C321
1267,2.8025373,6.8692641,-3.98874,-0.16519992,C321
1268,2.8045373,6.6657567,-4.1491513,0.46686932,C321
1269,2.8065373,6.4335194,-4.307169,1.1731589,C321
1270,2.8085373,6.2132525,-4.4460325,1.8243817,C321
1271,2.8105373,5.9738326,-4.5753193,2.4947581,C321
1272,2.8125372,5.7176528,-4.6782703,3.1483753,C321
1273,2.8145369,5.4710503,-4.7596731,3.7229836,C321
1274,2.8165369,5.1837459,-4.8123455,4.2544966,C321
1275,2.8185369,4.8530469,-4.8434701,4.7165775,C321
1276,2.8205368,4.5082817,-4.8650179,5.0951605,C321
1277,2.8225377,4.19943,-4.8817773,5.3848591,C321
1278,2.8245386,3.904943,-4.8889599,5.5620298,C321
1279,2.8265394,3.655946,-4.8937483,5.6625862,C321
1280,2.8285403,3.4500446,-4.8964419,5.648221,C321
1281,2.8305412,3.3063924,-4.9036245,5.528511,C321
1282,2.8325415,3.2058361,-4.9132013,5.3752823,C321
1283,2.8345415,3.1411927,-4.9227781,5.1286793,C321
1284,2.8365415,3.1172507,-4.9347491,4.8027687,C321
1285,2.8385415,3.1148565,-4.9491143,4.4747629,C321
1286,2.8405416,3.1747115,-4.9826331,4.0054994,C321
1287,2.8425407,3.2465374,-5.0185461,3.5697548,C321
1288,2.8445399,3.3327289,-5.0568533,3.1579521,C321
1289,2.8465399,3.4404678,-5.1071315,2.7102363,C321
1290,2.84854,3.572149,-5.1645923,2.2577322,C321
1291,2.85054,3.7325604,-5.2268414,1.8411411,C321
1292,2.85254,3.8953662,-5.281908,1.4987702,C321
1293,2.85454,4.0940847,-5.3369751,1.2234371,C321
1294,2.85654,4.2736502,-5.3872533,1.0055647,C321
1295,2.8585399,4.4412441,-5.4399257,0.85951841,C321
1296,2.8605399,4.6447511,-5.5069633,0.79248077,C321
1297,2.8625407,4.8554411,-5.576395,0.77093297,C321
1298,2.8645407,5.1334677,-5.672163,0.82121116,C321
1299,2.8665407,5.4902039,-5.8014498,0.91219085,C321
1300,2.8685407,5.84694,-5.9259486,1.0055647,C321
1301,2.8705407,6.2515597,-6.050447,1.1180922,C321
1302,2.8725407,6.6537857,-6.1510034,1.2473791,C321
1303,2.874541,7.0248871,-6.2228293,1.3742718,C321
1304,2.8765411,7.451055,-6.2587423,1.5466543,C321
1305,2.8785411,7.8867998,-6.2515597,1.7477672,C321
1306,2.8805411,8.3033905,-6.2036757,1.9776106,C321
1307,2.8825403,8.6744919,-6.1533976,2.1978772,C321
1308,2.8845395,9.0024977,-6.1031194,2.4061728,C321
1309,2.8865386,9.2538891,-6.0336876,2.5857379,C321
1310,2.8885377,9.4645786,-5.9618616,2.7341783,C321
1311,2.8905377,9.6297789,-5.8996124,2.8395233,C321
1312,2.8925377,9.732729,-5.8421516,2.8993783,C321
1313,2.8945377,9.7351236,-5.7751136,2.8778305,C321
1314,2.8965377,9.732729,-5.7224412,2.8395233,C321
1315,2.8985377,9.7447004,-5.6913166,2.7700913,C321
1316,2.9005377,9.7518826,-5.6889224,2.6503813,C321
1317,2.9025382,9.756671,-5.6865282,2.5546131,C321
1318,2.9045391,9.6800566,-5.6554036,2.4133554,C321
1319,2.906539,9.5459814,-5.624279,2.2577322,C321
1320,2.908539,9.4095116,-5.6027312,2.1045034,C321
1321,2.9105396,9.1916399,-5.5931544,1.8722657,C321
1322,2.9125396,8.9713726,-5.576395,1.6424223,C321
1323,2.9145395,8.7463179,-5.5428762,1.4197617,C321
1324,2.9165395,8.4829559,-5.4806271,1.1851299,C321
1325,2.9185396,8.2171993,-5.4111953,0.92655605,C321
1326,2.9205396,7.9394722,-5.3202152,0.65122288,C321
1327,2.9225388,7.6880808,-5.234024,0.41419691,C321
1328,2.924538,7.4462667,-5.1502271,0.23942018,C321
1329,2.9265372,7.2547302,-5.0831895,0.12449849,C321
1330,2.9285363,7.1445971,-5.0903721,0.088585466,C321
1331,2.9305358,7.0584059,-5.1933227,0.088585466,C321
1332,2.9325354,6.9698205,-5.317821,0.095768064,C321
1333,2.9345354,6.8692641,-5.4662619,0.10534488,C321
1334,2.9365353,6.7519479,-5.6266732,0.1436521,C321
1335,2.9385353,6.6489973,-5.7894788,0.22026655,C321
1336,2.9405353,6.5316815,-6.062418,0.37110126,C321
1337,2.9425361,6.4023948,-6.3233862,0.49081135,C321
1338,2.9445369,6.2826843,-6.5652003,0.58418524,C321
1339,2.9465378,6.146215,-6.7974377,0.67755908,C321
1340,2.9485387,5.9953804,-7.0344639,0.75896192,C321
1341,2.9505387,5.8373632,-7.2906432,0.83078802,C321
1342,2.9525387,5.6913166,-7.498939,0.85712421,C321
1343,2.9545388,5.540482,-7.5755534,0.82121116,C321
1344,2.9565388,5.4207721,-7.5659766,0.77811557,C321
1345,2.9585388,5.3489461,-7.4438725,0.73741412,C321
1346,2.9605389,5.3202152,-7.2930374,0.72544312,C321
1347,2.9625383,5.3226094,-7.1733274,0.72304893,C321
1348,2.9645375,5.3872533,-7.1182609,0.66319388,C321
1349,2.9665366,5.4566851,-7.0177045,0.45729253,C321
1350,2.9685357,5.4949923,-6.8261685,0.20590134,C321
1351,2.9705342,5.4566851,-6.2683191,-0.011971008,C321
1352,2.9725342,5.2196589,-5.2675428,0.24899697,C321
1353,2.9745342,5.0400939,-4.4771571,0.55784899,C321
1354,2.9765342,5.0951605,-4.2688618,0.60573304,C321
1355,2.9785342,5.245995,-4.3933601,0.42616791,C321
1356,2.9805342,5.3273978,-4.6255975,0.19153613,C321
1357,2.9825349,5.3250036,-4.8554411,0.076614454,C321
1358,2.9845357,5.2675428,-5.0975547,0.0023942017,C321
1359,2.9865366,5.2076879,-5.2364182,-0.050278235,C321
1360,2.9885374,5.1741691,-5.1765633,0.10295067,C321
1361,2.9905379,5.281908,-5.2220531,0.56263739,C321
1362,2.9925383,5.4518967,-5.4399257,1.0390835,C321
1363,2.9945383,5.7056818,-6.050447,1.3503298,C321
1364,2.9965383,5.978621,-6.9123597,1.4700398,C321
1365,2.9985383,6.2491655,-7.7359648,1.5131354,C321
1366,3.0005384,6.4909801,-8.4302835,1.4820108,C321
1367,3.0025375,6.5771713,-8.9737673,1.3670892,C321
1368,3.0045376,6.3521166,-9.5052805,1.1994951,C321
1369,3.0065376,5.8852472,-10.139744,1.2330139,C321
1370,3.0085376,5.2747254,-10.95856,1.4365211,C321
1371,3.0105376,4.6639051,-11.849203,1.6903064,C321
1372,3.0125376,4.1611223,-12.605771,1.8794483,C321
1373,3.0145376,3.7612908,-13.156438,1.8076223,C321
1374,3.0165375,3.4715924,-13.544298,1.5705963,C321
1375,3.0185375,3.3566709,-13.735834,1.0031705,C321
1376,3.0205375,3.3806129,-13.754988,0.21308395,C321
1377,3.0225383,3.454833,-13.728652,-0.57221419,C321
1378,3.0245392,3.632004,-13.685556,-1.4365211,C321
1379,3.02654,3.8474822,-13.683162,-2.1930888,C321
1380,3.0285409,4.2066126,-13.697527,-2.8251581,C321
1381,3.0305418,4.6854529,-13.73344,-3.289633,C321
1382,3.0325421,5.1574097,-13.769353,-3.5889084,C321
1383,3.0345422,5.7128644,-13.810055,-3.7804444,C321
1384,3.0365422,6.3473282,-13.862727,-3.8067808,C321
1385,3.0385422,6.9506669,-13.9154,-3.7612908,C321
1386,3.0405423,7.6832924,-14.001591,-3.4835634,C321
1387,3.0425414,8.3273325,-14.085388,-3.1771057,C321
1388,3.0445405,8.8827877,-14.162003,-2.8514943,C321
1389,3.0465405,9.3688107,-14.22904,-2.4588451,C321
1390,3.0485405,9.7830076,-14.281713,-2.0853498,C321
1391,3.0505405,10.132561,-14.327202,-1.7860745,C321
1392,3.0525405,10.407894,-14.370297,-1.5394717,C321
1393,3.0545405,10.613795,-14.420576,-1.328782,C321
1394,3.0565405,10.778996,-14.466066,-1.1587936,C321
1395,3.0585405,10.92983,-14.494797,-1.0319009,C321
1396,3.0605404,11.056723,-14.48522,-0.93852705,C321
1397,3.0625412,11.152491,-14.458883,-0.86670101,C321
1398,3.0645412,11.217134,-14.406211,-0.82839382,C321
1399,3.0665412,11.272201,-14.327202,-0.84754741,C321
1400,3.0685411,11.320085,-14.245799,-0.89543146,C321
1401,3.0705411,11.355998,-14.164396,-1.1013328,C321
1402,3.0725411,11.382334,-14.085388,-1.3192052,C321
1403,3.0745411,11.403882,-14.003985,-1.5298948,C321
1404,3.0765412,11.411064,-13.881881,-1.7286136,C321
1405,3.0785412,11.413459,-13.728652,-1.8579005,C321
1406,3.0805412,11.403882,-13.541904,-1.8770541,C321
1407,3.0825404,11.358392,-13.331214,-1.8459295,C321
1408,3.0845395,11.207558,-13.017574,-1.7429788,C321
1409,3.0865387,11.011233,-12.699145,-1.6256629,C321
1410,3.0885378,10.561123,-12.414235,-1.4939818,C321
1411,3.0905378,9.5914717,-12.447754,-1.4484921,C321
1412,3.0925375,8.5978775,-12.553099,-1.4341269,C321
1413,3.0945374,7.5875244,-12.600983,-1.3742718,C321
1414,3.0965374,6.6920929,-12.490849,-1.2545617,C321
1415,3.0985374,5.9355254,-12.311284,-1.1180922,C321
1416,3.1005373,5.2436008,-11.940183,-0.93852705,C321
1417,3.1025382,4.5729251,-11.33445,-0.76614451,C321
1418,3.1045391,3.9935284,-10.647314,-0.63685763,C321
1419,3.1065391,3.4596214,-9.5100689,-0.51954174,C321
1420,3.1085391,2.8993783,-7.9394722,-0.35913026,C321
1421,3.1105392,2.5163059,-6.3664818,-0.16041151,C321
1422,3.1125392,2.2816741,-5.0448823,0.019153614,C321
1423,3.1145392,2.2337902,-3.9360676,0.17956513,C321
1424,3.1165393,2.255338,-3.0526071,0.30406362,C321
1425,3.1185393,2.3654714,-2.4037786,0.36870706,C321
1426,3.1205393,2.5139117,-1.9847932,0.34715924,C321
1427,3.1225385,2.6575639,-1.7022774,0.2753332,C321
1428,3.1245376,2.7796681,-1.6136919,0.10773908,C321
1429,3.1265367,2.8610711,-1.7142484,-0.076614454,C321
1430,3.1285359,2.8754363,-1.8914193,-0.31842881,C321
1431,3.1305359,2.8514943,-2.2218192,-0.59376204,C321
1432,3.1325363,2.8203697,-2.6623523,-0.8882488,C321
1433,3.1345363,2.7988217,-3.1028855,-1.1587936,C321
1434,3.1365362,2.7988217,-3.6224272,-1.4317327,C321
1435,3.1385362,2.8562827,-4.1850648,-1.6950948,C321
1436,3.1405362,2.9592333,-4.8027687,-1.922544,C321
1437,3.1425374,3.0717609,-5.3776765,-2.099715,C321
1438,3.1445383,3.2632968,-6.0001688,-2.2026656,C321
1439,3.1465391,3.490746,-6.5699887,-2.2601264,C321
1440,3.1485399,3.8498764,-7.1469913,-2.2337902,C321
1441,3.1505399,4.3263226,-7.6976576,-2.1188686,C321
1442,3.15254,4.8027687,-8.1741037,-1.99437,C321
1443,3.15454,5.2843022,-8.6122427,-1.8986019,C321
1444,3.15654,5.6889224,-9.0216513,-1.8507179,C321
1445,3.1585401,6.0241108,-9.3783875,-1.8818425,C321
1446,3.1605401,6.2898669,-9.7231522,-1.946486,C321
1447,3.1625392,6.4957685,-10.024822,-2.0039468,C321
1448,3.1645384,6.6513915,-10.316915,-2.0207062,C321
1449,3.1665375,6.7591305,-10.582671,-1.9800048,C321
1450,3.1685366,6.8285627,-10.807726,-1.9153614,C321
1451,3.1705358,6.8812351,-10.980108,-1.7381904,C321
1452,3.1725357,6.8956003,-11.044752,-1.5562311,C321
1453,3.1745357,6.8548989,-10.982503,-1.3742718,C321
1454,3.1765357,6.6609683,-10.666468,-1.1755531,C321
1455,3.1785356,6.3425398,-10.180445,-0.9816227,C321
1456,3.1805356,5.978621,-9.6225958,-0.81881696,C321
1457,3.1825365,5.6530094,-9.1246023,-0.69671267,C321
1458,3.1845374,5.3561287,-8.657733,-0.62967503,C321
1459,3.1865383,5.1191025,-8.2626896,-0.59615624,C321
1460,3.1885392,4.9539027,-7.9418664,-0.61530983,C321
1461,3.1905392,4.8554411,-7.7072344,-0.66079968,C321
1462,3.1925388,4.7884035,-7.5324578,-0.70389527,C321
1463,3.1945389,4.7429137,-7.4055653,-0.74220252,C321
1464,3.1965389,4.7213659,-7.3026147,-0.77572137,C321
1465,3.1985389,4.7860093,-7.2212114,-0.79966336,C321
1466,3.2005389,5.3680997,-7.252336,-0.8858546,C321
1467,3.2025377,5.8684878,-7.3744407,-1.0127473,C321
1468,3.2045377,6.2491655,-7.5851302,-1.163582,C321
1469,3.2065377,6.3018379,-7.8389158,-1.3000516,C321
1470,3.2085377,5.9498906,-7.9227128,-1.3551182,C321
1471,3.2105377,5.3657055,-7.829339,-1.3215994,C321
1472,3.2125377,4.8338933,-7.702446,-1.2593501,C321
1473,3.2145375,4.4149079,-7.558794,-1.1587936,C321
1474,3.2165374,4.1252093,-7.451055,-1.0630256,C321
1475,3.2185374,4.0198646,-7.4223247,-0.98641109,C321
1476,3.2205374,4.0653543,-7.5061216,-0.9624691,C321
1477,3.2225387,4.1443629,-7.63062,-0.9648633,C321
1478,3.2245395,4.2090068,-7.8030028,-0.99119949,C321
1479,3.2265404,4.19943,-7.96102,-1.0247183,C321
1480,3.2285412,4.1683054,-8.0879126,-1.055843,C321
1481,3.2305421,4.1395745,-8.17171,-1.0845734,C321
1482,3.232542,4.1659107,-8.2339592,-1.1061212,C321
1483,3.234542,4.2209778,-8.2866316,-1.1180922,C321
1484,3.2365421,4.3287168,-8.3464861,-1.1085154,C321
1485,3.2385421,4.4532151,-8.4207067,-1.091756,C321
1486,3.2405421,4.5681367,-8.5045033,-1.0893618,C321
1487,3.2425413,4.6639051,-8.5787239,-1.1061212,C321
1488,3.2445404,4.7453079,-8.6433678,-1.1659763,C321
1489,3.2465404,4.8171339,-8.6912518,-1.2354081,C321
1490,3.2485404,4.8841715,-8.7151937,-1.3335704,C321
1491,3.2505403,4.9299607,-8.7080107,-1.4484921,C321
1492,3.2525403,4.9491143,-8.6888571,-1.5514427,C321
1493,3.2545403,4.9227781,-8.6409731,-1.6567876,C321
1494,3.2565402,4.8530469,-8.5643587,-1.7597382,C321
1495,3.2585402,4.7692499,-8.4805613,-1.8483237,C321
1496,3.2605402,4.6184149,-8.3273325,-1.946486,C321
1497,3.262541,4.4699745,-8.1764984,-2.0278888,C321
1498,3.264541,4.31914,-8.0256634,-2.0949266,C321
1499,3.2665411,4.1252093,-7.8341274,-2.1619642,C321
1500,3.2685411,3.9121256,-7.5755534,-2.219425,C321
1501,3.2705411,3.7421372,-7.2020578,-2.2768857,C321
1502,3.2725412,3.6272156,-6.7902551,-2.3463178,C321
1503,3.2745414,3.514688,-6.2874727,-2.4660277,C321
1504,3.2765414,3.3638535,-5.8110266,-2.6072857,C321
1505,3.2785414,2.9999347,-5.1981111,-2.7222073,C321
1506,3.2805414,2.5929205,-4.5034933,-2.6886885,C321
1507,3.2825401,2.2792799,-3.881001,-2.6168625,C321
1508,3.2845392,2.0685902,-3.3207579,-2.5594015,C321
1509,3.2865384,1.922544,-2.8754363,-2.5522189,C321
1510,3.2885375,1.9009962,-2.5713725,-2.5498247,C321
1511,3.2905375,2.0015526,-2.4420857,-2.4923639,C321
1512,3.2925374,2.1308396,-2.4732103,-2.4253263,C321
1513,3.2945374,2.2888567,-2.5689783,-2.3750482,C321
1514,3.2965373,2.4133554,-2.7629087,-2.3774424,C321
1515,3.2985378,2.4923639,-2.9951463,-2.4037786,C321
1516,3.3005378,2.4420857,-3.2225955,-2.5139117,C321
1517,3.3025386,2.3558946,-3.4117374,-2.6503813,C321
1518,3.3045394,2.2409728,-3.5625722,-2.8107927,C321
1519,3.3065394,2.0566192,-3.6631286,-3.0382419,C321
1520,3.3085395,1.8387469,-3.7110126,-3.2968156,C321
1521,3.3105395,1.6160861,-3.739743,-3.5075054,C321
1522,3.3125395,1.4221559,-3.7612908,-3.6487634,C321
1523,3.3145396,1.2593501,-3.7780502,-3.6822822,C321
1524,3.3165396,1.127669,-3.7828386,-3.6583402,C321
1525,3.3185396,1.0079589,-3.7421372,-3.550601,C321
1526,3.3205397,0.89543146,-3.5410242,-3.3901896,C321
1527,3.3225388,0.79008657,-3.3806129,-3.2273839,C321
1528,3.3245379,0.66798228,-3.0430303,-3.0238767,C321
1529,3.326537,0.5243302,-2.5187001,-2.8251581,C321
1530,3.3285361,0.36391866,-1.9632454,-2.6791117,C321
1531,3.3305361,0.10055647,-1.1180922,-2.6479871,C321
1532,3.332536,-0.12689269,-0.31842881,-2.6551697,C321
1533,3.334536,-0.31603462,0.4357447,-2.6934769,C321
1534,3.336536,-0.48362875,1.2449849,-2.7246015,C321
1535,3.338536,-0.56981999,2.0350714,-2.6264393,C321
1536,3.340536,-0.57460839,2.6719291,-2.3439236,C321
1537,3.3425368,-0.5315128,3.1220391,-2.0494366,C321
1538,3.3445377,-0.40222588,3.3111811,-1.7238252,C321
1539,3.3465386,-0.24899697,3.3518825,-1.4365211,C321
1540,3.3485394,0.01436521,3.1364043,-1.1683705,C321
1541,3.3505394,0.44771573,2.7269957,-0.93852705,C321
1542,3.3525396,0.93613285,2.2697031,-0.79008657,C321
1543,3.3545396,1.6567876,1.5897499,-0.77572137,C321
1544,3.3565396,2.4923639,0.69671267,-0.85951841,C321
1545,3.3585392,3.2609026,-0.19632454,-1.0007763,C321
1546,3.3605392,4.0222588,-1.2497733,-1.3239936,C321
1547,3.3625384,4.7333369,-2.3774424,-1.8219875,C321
1548,3.3645376,5.3393693,-3.4165258,-2.207454,C321
1549,3.3665368,5.8421516,-4.6327801,-2.4995465,C321
1550,3.3685359,6.1557918,-6.0528412,-2.8634653,C321
1551,3.3705353,6.2898669,-7.7192054,-3.3542767,C321
1552,3.3725353,6.3473282,-9.2778311,-3.8953662,C321
1553,3.3745352,6.3114147,-10.834062,-4.5920787,C321
1554,3.3765352,6.2563481,-12.201151,-5.2364182,C321
1555,3.3785353,6.1940989,-13.462895,-5.8086324,C321
1556,3.3805353,6.1294556,-14.60493,-6.1557918,C321
1557,3.3825361,6.0552354,-15.562909,-6.3185978,C321
1558,3.384537,5.8900356,-16.400881,-6.0288992,C321
1559,3.3865379,5.6386442,-17.238852,-5.5811834,C321
1560,3.3885388,5.3824649,-17.973871,-5.2244473,C321
1561,3.3905388,5.0496707,-18.572422,-4.9275665,C321
1562,3.3925389,4.6399627,-18.926764,-4.6255975,C321
1563,3.3945389,4.2185836,-19.096752,-4.3263226,C321
1564,3.3965389,3.7062242,-18.941128,-3.9624038,C321
1565,3.398539,3.1890767,-18.488625,-3.5482068,C321
1566,3.4005391,2.7413609,-17.806276,-3.1052797,C321
1567,3.4025382,2.3870192,-17.116747,-2.7269957,C321
1568,3.4045382,2.1068976,-16.254833,-2.4372973,C321
1569,3.4065382,1.8674773,-15.376162,-2.2385786,C321
1570,3.4085382,1.5777789,-14.252982,-2.0733786,C321
1571,3.4105382,1.4676456,-13.149255,-1.9321208,C321
1572,3.4125382,1.520318,-12.268188,-1.922544,C321
1573,3.4145382,1.8531121,-11.624148,-2.1739352,C321
1574,3.4165382,2.3175871,-11.147702,-2.6216509,C321
1575,3.4185382,2.7533319,-10.786178,-3.0861261,C321
1576,3.4205381,3.1651347,-10.532393,-3.5817258,C321
1577,3.4225385,3.490746,-10.369587,-3.9815574,C321
1578,3.4245394,3.70383,-10.247482,-4.2784386,C321
1579,3.4265402,3.8307228,-10.122984,-4.5250411,C321
1580,3.428541,3.8786068,-9.8668041,-4.7070007,C321
1581,3.4305416,3.6894648,-9.445425,-4.7836151,C321
1582,3.4325416,3.5218706,-9.0623531,-4.8674121,C321
1583,3.4345416,3.3901896,-8.7223759,-4.9562969,C321
1584,3.4365417,3.2632968,-8.41113,-5.0257287,C321
1585,3.4385415,3.1172507,-8.195652,-5.0927663,C321
1586,3.4405416,2.9568391,-8.1118546,-5.1909285,C321
1587,3.4425407,2.8155811,-8.1070662,-5.3202152,C321
1588,3.4445399,2.6958711,-8.2267761,-5.4806271,C321
1589,3.4465402,2.5977089,-8.3273325,-5.564424,C321
1590,3.4485402,2.4684219,-8.3464861,-5.588366,C321
1591,3.4505401,2.3032219,-8.3273325,-5.2603602,C321
1592,3.4525398,2.15957,-8.3440924,-4.9299607,C321
1593,3.4545398,2.0159178,-8.4159184,-4.6279917,C321
1594,3.4565397,1.8411411,-8.4614077,-4.2999864,C321
1595,3.4585397,1.6591818,-8.4494371,-3.9743748,C321
1596,3.4605396,1.3335704,-8.3177557,-3.6966474,C321
1597,3.4625404,1.0462662,-8.1836805,-3.4883518,C321
1598,3.4645405,0.80205756,-8.068759,-3.3159695,C321
1599,3.4665405,0.63685763,-8.0256634,-3.2297781,C321
1600,3.4685405,0.56503159,-8.052,-3.2321723,C321
1601,3.4705406,0.57221419,-8.1334028,-3.2944214,C321
1602,3.4725406,0.60812724,-8.2387476,-3.3542767,C321
1603,3.4745406,0.68474168,-8.4590139,-3.4117374,C321
1604,3.4765407,0.76614451,-8.7104053,-3.4763808,C321
1605,3.4785407,0.83318222,-8.9857378,-3.5338416,C321
1606,3.4805407,0.89543146,-9.2491007,-3.6631286,C321
1607,3.4825402,0.99838209,-9.4789438,-3.7325604,C321
1608,3.4845393,1.2306197,-9.7590656,-3.5314474,C321
1609,3.4865385,1.4413095,-10.065523,-3.2848446,C321
1610,3.4885376,1.6041151,-10.336068,-3.0885203,C321
1611,3.4905376,1.721431,-10.568306,-2.9807811,C321
1612,3.4925376,1.7717092,-10.69041,-2.9999347,C321
1613,3.4945376,1.8028339,-10.750265,-3.0550013,C321
1614,3.4965375,1.8124107,-10.685621,-3.1842883,C321
1615,3.4985375,1.7812861,-10.46296,-3.3997664,C321
1616,3.5005375,1.7262194,-10.079888,-3.6703112,C321
1617,3.5025383,1.6567876,-9.6393557,-3.964798,C321
1618,3.5045392,1.6280571,-9.1700916,-4.3837833,C321
1619,3.5065388,1.7118542,-8.8971529,-4.7022123,C321
1620,3.5085388,1.9321208,-8.8588457,-4.6662993,C321
1621,3.5105388,2.0374656,-8.7822313,-4.6088381,C321
1622,3.5125391,2.0566192,-8.6960402,-4.5585599,C321
1623,3.5145391,1.982399,-8.6194258,-4.343082,C321
1624,3.5165392,1.8986019,-8.5571766,-4.0605659,C321
1625,3.5185392,1.7956513,-8.4829559,-3.8714242,C321
1626,3.5205392,1.6280571,-8.3177557,-3.9121256,C321
1627,3.5225384,1.4413095,-8.0352402,-4.1659107,C321
1628,3.5245375,1.1683705,-7.738359,-4.3885717,C321
1629,3.5265367,0.87148941,-7.3816233,-4.4795513,C321
1630,3.5285358,0.63446343,-7.0536175,-4.4819455,C321
1631,3.5305349,0.50038815,-6.8261685,-4.3909659,C321
1632,3.5325348,0.4429273,-6.6777277,-4.283227,C321
1633,3.5345348,0.48841715,-6.6106901,-4.0821137,C321
1634,3.5365348,0.56503159,-6.5723829,-3.8786068,C321
1635,3.5385347,0.67037648,-6.5412583,-3.6296098,C321
1636,3.5405347,0.74938512,-6.5197105,-3.3327289,C321
1637,3.5425356,0.80205756,-6.4981627,-3.0454245,C321
1638,3.5445365,0.79487497,-6.4670382,-2.7413609,C321
1639,3.5465374,0.71586633,-6.404789,-2.4396915,C321
1640,3.5485383,0.61291564,-6.3233862,-2.1739352,C321
1641,3.5505384,0.45489833,-6.2012815,-1.910573,C321
1642,3.5525384,0.28251579,-6.0648122,-1.6567876,C321
1643,3.5545384,0.026336219,-5.9379196,-1.4077905,C321
1644,3.5565385,-0.2705448,-5.8636994,-1.091756,C321
1645,3.5585385,-0.55784899,-5.8996124,-0.76135612,C321
1646,3.5605385,-0.92895025,-6.0193224,-0.2681506,C321
1647,3.5625376,-1.2545617,-6.1557918,0.1412579,C321
1648,3.5645367,-1.5251064,-6.2994437,0.46926352,C321
1649,3.5665358,-1.7166426,-6.4694324,0.68953007,C321
1650,3.568535,-1.8507179,-6.6346321,0.80205756,C321
1651,3.5705341,-1.958457,-6.7854667,0.84515321,C321
1652,3.5725341,-2.0494366,-6.9051771,0.84036481,C321
1653,3.574534,-2.1404164,-7.0248871,0.80205756,C321
1654,3.576534,-2.207454,-7.1469913,0.78050977,C321
1655,3.578534,-2.2122424,-7.3385277,0.81642276,C321
1656,3.5805339,-2.1667526,-7.5994954,0.93613285,C321
1657,3.5825348,-2.0973208,-7.8628578,1.0702082,C321
1658,3.5845356,-1.958457,-8.2004404,1.2090719,C321
1659,3.5865364,-1.7836803,-8.5835123,1.3670892,C321
1660,3.5885373,-1.6280571,-8.9187002,1.5035586,C321
1661,3.5905382,-1.4748282,-9.2203703,1.7070658,C321
1662,3.5925382,-1.3335704,-9.4837322,1.9297266,C321
1663,3.5945383,-1.1994951,-9.7949781,2.147599,C321
1664,3.5965383,-1.1085154,-10.948983,2.2457612,C321
1665,3.5985383,-0.87388361,-13.470078,1.9440918,C321
1666,3.6005384,-0.58897364,-16.944365,1.6783354,C321
1667,3.6025375,-0.48602295,-20.468628,1.496376,C321
1668,3.6045378,-0.84275901,-24.797646,0.9624691,C321
1669,3.6065378,-1.3958195,-28.728924,0.38786069,C321
1670,3.6085378,-2.3151929,-31.858145,-0.34955344,C321
1671,3.6105377,-3.0262709,-33.134254,-0.9792285,C321
1672,3.6125377,-3.41892,-33.222839,-1.3814543,C321
1673,3.6145377,-3.3231521,-31.317057,-1.4197617,C321
1674,3.6165376,-2.8778305,-28.21896,-1.0295067,C321
1675,3.6185376,-2.3223755,-25.221418,-0.53869539,C321
1676,3.6205377,-1.1085154,-22.142176,0.23702596,C321
1677,3.6225386,0.11252748,-19.656994,0.92655605,C321
1678,3.6245395,1.3096284,-17.700932,1.5059528,C321
1679,3.6265404,2.5570073,-16.226103,1.9800048,C321
1680,3.6285413,3.6152446,-15.103223,2.3439236,C321
1681,3.6305422,4.2975922,-14.20031,2.5522189,C321
1682,3.6325422,4.6878471,-13.446136,2.6503813,C321
1683,3.6345423,4.6232033,-12.732664,2.5905263,C321
1684,3.6365422,4.3813891,-12.11496,2.4732103,C321
1685,3.6385423,3.8666358,-11.554717,2.2529438,C321
1686,3.6405422,3.2393548,-11.090241,1.9919758,C321
1687,3.6425414,2.6695349,-10.71914,1.757344,C321
1688,3.6445406,2.1188686,-10.422259,1.5394717,C321
1689,3.6465406,1.5969325,-10.173263,1.3503298,C321
1690,3.6485411,1.151611,-9.9673605,1.1994951,C321
1691,3.6505411,0.74938512,-9.811738,1.0893618,C321
1692,3.652541,0.35913026,-9.6776628,1.0151415,C321
1693,3.654541,0.0023942017,-9.5603466,0.9552865,C321
1694,3.656541,-0.37828386,-9.4478188,0.89543146,C321
1695,3.6585409,-0.75896192,-9.3640223,0.81163436,C321
1696,3.6605409,-1.1013328,-9.3376856,0.71347213,C321
1697,3.6625417,-1.3766659,-9.3448687,0.63446343,C321
1698,3.6645414,-1.5634137,-9.4166946,0.58657944,C321
1699,3.6665414,-1.6783354,-9.5100689,0.55545479,C321
1700,3.6685414,-1.6711528,-9.6680861,0.53869539,C321
1701,3.6705414,-1.5442601,-9.8811693,0.56024319,C321
1702,3.6725415,-1.3766659,-10.094254,0.59376204,C321
1703,3.6745415,-1.1204864,-10.34325,0.63206923,C321
1704,3.6765415,-0.81402856,-10.609007,0.64643449,C321
1705,3.6785416,-0.5267244,-10.848427,0.64164603,C321
1706,3.6805416,-0.19393034,-11.118972,0.56263739,C321
1707,3.6825407,0.069431849,-11.336844,0.50038815,C321
1708,3.6845398,0.34715924,-11.549929,0.40462008,C321
1709,3.6865389,0.64404029,-11.751041,0.272939,C321
1710,3.688538,0.91937345,-11.923424,0.15083471,C321
1711,3.690538,1.2497733,-12.117354,0.011971008,C321
1712,3.6925379,1.5418659,-12.29213,-0.11971009,C321
1713,3.6945379,1.8004397,-12.464514,-0.24181437,C321
1714,3.6965379,2.0494366,-12.612954,-0.33039984,C321
1715,3.6985379,2.2720973,-12.747029,-0.39983168,C321
1716,3.7005379,2.4612393,-12.873921,-0.49081135,C321
1717,3.7025386,2.6240451,-12.988844,-0.59376204,C321
1718,3.7045394,2.7676971,-13.115736,-0.73262572,C321
1719,3.7065394,2.8754363,-13.233052,-0.86909521,C321
1720,3.7085388,2.9544449,-13.352762,-1.0342951,C321
1721,3.7105388,3.0023289,-13.455713,-1.2354081,C321
1722,3.7125388,3.0310593,-13.532328,-1.4317327,C321
1723,3.7145389,3.0430303,-13.570635,-1.6472107,C321
1724,3.7165389,3.0430303,-13.55627,-1.8579005,C321
1725,3.7185389,3.0334535,-13.525145,-2.0398598,C321
1726,3.720539,2.9927521,-13.443742,-2.2146366,C321
1727,3.7225381,2.9400797,-13.352762,-2.360683,C321
1728,3.7245373,2.8754363,-13.252206,-2.4803929,C321
1729,3.7265365,2.7700913,-13.120524,-2.5761611,C321
1730,3.7285356,2.6216509,-12.960114,-2.6455929,C321
1731,3.7305356,2.4372973,-12.770971,-2.6910827,C321
1732,3.7325355,2.2577322,-12.589012,-2.7341783,C321
1733,3.7345355,2.0446482,-12.387898,-2.7772739,C321
1734,3.7365355,1.8291701,-12.205939,-2.8131869,C321
1735,3.7385354,1.5753847,-12.019192,-2.8491001,C321
1736,3.7405354,1.30484,-11.837233,-2.8898015,C321
1737,3.7425362,1.055843,-11.674427,-2.9281087,C321
1738,3.7445371,0.80924016,-11.509227,-2.9712043,C321
1739,3.746538,0.57700258,-11.336844,-3.0645781,C321
1740,3.7485389,0.35673606,-11.195586,-3.2321723,Treppe3
1741,3.7505389,0.11971009,-11.039964,-3.6176388,Treppe3
1742,3.752539,-0.04070143,-10.860398,-3.9193082,Treppe3
1743,3.754539,-0.1436521,-10.659286,-4.0102878,Treppe3
1744,3.756539,-0.21308395,-10.403106,-3.7229836,Treppe3
1745,3.7585391,-0.31124622,-10.144532,-3.2585084,Treppe3
1746,3.7605391,-0.50517654,-9.9362364,-2.8060043,Treppe3
1747,3.7625385,-0.72783732,-9.7590656,-2.4444799,Treppe3
1748,3.7645376,-1.0103531,-9.5555582,-2.1667526,Treppe3
1749,3.7665368,-1.3000516,-9.3305035,-1.934515,Treppe3
1750,3.7685359,-1.7405846,-8.9570074,-1.6663644,Treppe3
1751,3.770535,-2.2361844,-8.4494371,-1.3766659,Treppe3
1752,3.7725348,-2.6024973,-7.9658084,-1.1563994,Treppe3
1753,3.7745347,-2.6408045,-7.5300636,-1.0773908,Treppe3
1754,3.7765347,-2.336741,-7.2475476,-1.1444284,Treppe3
1755,3.7785347,-1.9440918,-7.0727711,-1.2521675,Treppe3
1756,3.7805347,-1.3910311,-7.0416465,-1.4125791,Treppe3
1757,3.7825356,-0.78050977,-7.1422029,-1.5634137,Treppe3
1758,3.784537,-0.23223756,-7.2930374,-1.6807296,Treppe3
1759,3.7865378,0.29448682,-7.5516114,-1.7501614,Treppe3
1760,3.7885387,0.77332717,-7.8820114,-1.7645266,Treppe3
1761,3.7905387,1.1851299,-8.2411413,-1.7262194,Treppe3
1762,3.7925387,1.5179238,-8.5547819,-1.6663644,Treppe3
1763,3.7945387,1.7741034,-8.8181438,-1.5514427,Treppe3
1764,3.7965387,1.9752164,-9.0264397,-1.4269443,Treppe3
1765,3.7985387,2.1188686,-9.1557264,-1.2569559,Treppe3
1766,3.8005387,2.2337902,-9.2131872,-1.0582372,Treppe3
1767,3.8025379,2.3247697,-9.2586775,-0.90021986,Treppe3
1768,3.804537,2.4037786,-9.2634659,-0.75177932,Treppe3
1769,3.806537,2.4803929,-9.2203703,-0.61291564,Treppe3
1770,3.8085369,2.5474305,-9.1724863,-0.49559975,Treppe3
1771,3.8105369,2.6096799,-9.0886889,-0.38546649,Treppe3
1772,3.8125369,2.6479871,-8.9833441,-0.2777274,Treppe3
1773,3.8145368,2.6695349,-8.8779993,-0.17956513,Treppe3
1774,3.8165371,2.6623523,-8.7558947,-0.079008654,Treppe3
1775,3.818537,2.6431987,-8.6313963,0.0095768068,Treppe3
1776,3.820537,2.5713725,-8.4973211,0.10055647,Treppe3
1777,3.8225378,2.4923639,-8.3800049,0.17956513,Treppe3
1778,3.8245387,2.4109612,-8.2818432,0.25617957,Treppe3
1779,3.8265396,2.3127987,-8.1980457,0.32321724,Treppe3
1780,3.8285405,2.2098482,-8.1142492,0.38786069,Treppe3
1781,3.8305414,2.0901382,-8.0280571,0.45250413,Treppe3
1782,3.8325413,1.982399,-7.96102,0.50757074,Treppe3
1783,3.8345413,1.8890251,-7.9107418,0.55784899,Treppe3
1784,3.8365414,1.8124107,-7.8676462,0.60094464,Treppe3
1785,3.8385414,1.7597382,-7.8221564,0.63206923,Treppe3
1786,3.8405413,1.721431,-7.7910318,0.62728083,Treppe3
1787,3.8425404,1.6903064,-7.774272,0.59615624,Treppe3
1788,3.844539,1.6639702,-7.7910318,0.5291186,Treppe3
1789,3.8465389,1.6328455,-7.8484926,0.44532153,Treppe3
1790,3.8485389,1.5921441,-7.9179244,0.36870706,Treppe3
1791,3.8505389,1.4987702,-8.0663652,0.2633622,Treppe3
1792,3.8525389,1.4149733,-8.2148056,0.16759412,Treppe3
1793,3.8545389,1.3479356,-8.3608513,0.076614454,Treppe3
1794,3.8565389,1.30484,-8.5332346,-0.023942016,Treppe3
1795,3.8585389,1.2785037,-8.7271643,-0.15083471,Treppe3
1796,3.8605389,1.2689269,-8.9187002,-0.30406362,Treppe3
1797,3.8625397,1.2593501,-9.0862951,-0.45010993,Treppe3
1798,3.8645406,1.2449849,-9.2562828,-0.61530983,Treppe3
1799,3.8665406,1.2354081,-9.3927526,-0.76375031,Treppe3
1800,3.8685406,1.2258313,-9.5028858,-0.90261406,Treppe3
1801,3.8705407,1.2018893,-9.5938654,-1.0223241,Treppe3
1802,3.8725407,1.1707647,-9.6656914,-1.115698,Treppe3
1803,3.8745407,1.1348516,-9.6968164,-1.1707647,Treppe3
1804,3.8765405,1.0965444,-9.6992102,-1.1923125,Treppe3
1805,3.8785405,1.0534488,-9.7039986,-1.1971009,Treppe3
1806,3.8805406,0.98641109,-9.7662477,-1.1779473,Treppe3
1807,3.8825397,0.90979666,-9.8284969,-1.1540052,Treppe3
1808,3.8845389,0.84036481,-9.8811693,-1.1252748,Treppe3
1809,3.886538,0.76614451,-9.9266596,-1.1013328,Treppe3
1810,3.8885371,0.67037648,-9.9960918,-1.1085154,Treppe3
1811,3.890537,0.59136784,-10.017639,-1.1252748,Treppe3
1812,3.892537,0.5267244,-10.024822,-1.1324574,Treppe3
1813,3.894537,0.44532153,-10.043976,-1.1180922,Treppe3
1814,3.896537,0.35194764,-10.055946,-1.0965444,Treppe3
1815,3.8985369,0.22744916,-10.053553,-1.055843,Treppe3
1816,3.9005369,0.10295067,-10.043976,-0.99598789,Treppe3
1817,3.9025378,0.0,-10.053553,-0.94570965,Treppe3
1818,3.9045387,-0.10534488,-10.094254,-0.93134445,Treppe3
1819,3.9065388,-0.25857377,-10.154109,-0.9768343,Treppe3
1820,3.9085388,-0.4285621,-10.206781,-1.0390835,Treppe3
1821,3.9105388,-0.63925183,-10.230723,-1.1300632,Treppe3
1822,3.9125389,-0.84275901,-10.199598,-1.2282255,Treppe3
1823,3.9145389,-1.0127473,-10.139744,-1.3239936,Treppe3
1824,3.9165389,-1.1492168,-10.041581,-1.4245501,Treppe3
1825,3.9185389,-1.2186487,-9.9817257,-1.5035586,Treppe3
1826,3.9205389,-1.2497733,-9.9529953,-1.5562311,Treppe3
1827,3.9225381,-1.2785037,-9.9266596,-1.5801731,Treppe3
1828,3.9245372,-1.3096284,-9.9122944,-1.5825673,Treppe3
1829,3.9265363,-1.3383588,-9.9266596,-1.5514427,Treppe3
1830,3.9285354,-1.3120226,-10.04637,-1.5131354,Treppe3
1831,3.9305345,-1.2449849,-10.192416,-1.4484921,Treppe3
1832,3.9325345,-1.1779473,-10.276213,-1.3670892,Treppe3
1833,3.9345344,-1.103727,-10.237906,-1.2641385,Treppe3
1834,3.9365344,-1.0199299,-10.115802,-1.1803415,Treppe3
1835,3.9385344,-0.94331545,-9.9841204,-1.1133038,Treppe3
1836,3.9405343,-0.84994161,-9.8284969,-1.0534488,Treppe3
1837,3.9425352,-0.75177932,-9.6752682,-1.0055647,Treppe3
1838,3.944536,-0.65840548,-9.5459814,-0.9672575,Treppe3
1839,3.9465369,-0.54827219,-9.4478188,-0.94092125,Treppe3
1840,3.9485377,-0.42137951,-9.4047232,-0.92416185,Treppe3
1841,3.9505378,-0.28012159,-9.421483,-0.92655605,Treppe3
1842,3.9525382,-0.1436521,-9.4597902,-0.93134445,Treppe3
1843,3.9545382,-0.016759412,-9.5052805,-0.93373865,Treppe3
1844,3.9565382,0.10534488,-9.5316162,-0.93134445,Treppe3
1845,3.9585383,0.20829555,-9.5124626,-0.92655605,Treppe3
1846,3.9605383,0.28969839,-9.4430304,-0.91937345,Treppe3
1847,3.9625374,0.35673606,-9.3879642,-0.91458505,Treppe3
1848,3.9645365,0.4333505,-9.4143,-0.90979666,Treppe3
1849,3.9665356,0.49320555,-9.462184,-0.90261406,Treppe3
1850,3.9685347,0.50996494,-9.4741554,-0.8858546,Treppe3
1851,3.9705338,0.50517654,-9.4406366,-0.8810662,Treppe3
1852,3.972534,0.51235914,-9.4166946,-0.89303726,Treppe3
1853,3.9745339,0.5243302,-9.4095116,-0.92895025,Treppe3
1854,3.9765339,0.51475334,-9.390358,-0.9504981,Treppe3
1855,3.9785339,0.49320555,-9.3592339,-0.9624691,Treppe3
1856,3.9805339,0.48362875,-9.318532,-0.98880529,Treppe3
1857,3.9825348,0.48602295,-9.2850132,-1.0223241,Treppe3
1858,3.9845357,0.49799395,-9.2562828,-1.0630256,Treppe3
1859,3.9865366,0.533907,-9.2347355,-1.1300632,Treppe3
1860,3.9885375,0.58897364,-9.2491007,-1.2162545,Treppe3
1861,3.9905385,0.63685763,-9.2802248,-1.292869,Treppe3
1862,3.9925382,0.67277068,-9.3137436,-1.3479356,Treppe3
1863,3.9945383,0.68474168,-9.3544455,-1.364695,Treppe3
1864,3.9965383,0.68474168,-9.3927526,-1.3670892,Treppe3
1865,3.9985383,0.68234748,-9.4430304,-1.3575124,Treppe3
1866,4.0005384,0.67516488,-9.4837322,-1.3479356,Treppe3
1867,4.0025375,0.66079968,-9.517251,-1.3383588,Treppe3
1868,4.0045375,0.63925183,-9.5435877,-1.3192052,Treppe3
1869,4.0065375,0.63685763,-9.5747118,-1.2737153,Treppe3
1870,4.0085375,0.62967503,-9.6034422,-1.2282255,Treppe3
1871,4.0105375,0.58657944,-9.6249905,-1.2186487,Treppe3
1872,4.0125374,0.5291186,-9.6417494,-1.2234371,Treppe3
1873,4.0145374,0.47405192,-9.6632977,-1.2378023,Treppe3
1874,4.0165374,0.40940848,-9.692028,-1.2665327,Treppe3
1875,4.0185373,0.33758244,-9.7135754,-1.2856863,Treppe3
1876,4.0205373,0.2753332,-9.7279406,-1.2856863,Treppe3
1877,4.0225376,0.23463176,-9.7423058,-1.2785037,Treppe3
1878,4.0245384,0.22744916,-9.7590656,-1.2665327,Treppe3
1879,4.0265393,0.23942018,-9.7758245,-1.2593501,Treppe3
1880,4.0285402,0.2705448,-9.787796,-1.2665327,Treppe3
1881,4.0305411,0.30406362,-9.7949781,-1.2856863,Treppe3
1882,4.032541,0.33758244,-9.7949781,-1.30484,Treppe3
1883,4.034541,0.39743748,-9.7901897,-1.3215994,Treppe3
1884,4.036541,0.49559975,-9.7925844,-1.328782,Treppe3
1885,4.038541,0.59855044,-9.7997665,-1.3263878,Treppe3
1886,4.040541,0.73262572,-9.8237085,-1.3072342,Treppe3
1887,4.0425401,0.85712421,-9.8500452,-1.292869,Treppe3
1888,4.0445392,0.9696517,-9.8763809,-1.2832921,Treppe3
1889,4.0465392,1.0749966,-9.9003229,-1.2737153,Treppe3
1890,4.0485392,1.1683705,-9.9194765,-1.2521675,Treppe3
1891,4.0505391,1.2521675,-9.9386301,-1.2234371,Treppe3
1892,4.0525394,1.316811,-9.9529953,-1.1947067,Treppe3
1893,4.0545393,1.3623008,-9.95539,-1.1587936,Treppe3
1894,4.0565393,1.4006079,-9.9577837,-1.127669,Treppe3
1895,4.0585394,1.4365211,-9.9529953,-1.091756,Treppe3
1896,4.0605393,1.4652514,-9.9386301,-1.055843,Treppe3
1897,4.0625402,1.4867992,-9.9194765,-1.0223241,Treppe3
1898,4.0645402,1.4939818,-9.8859577,-0.9840169,Treppe3
1899,4.0665403,1.4867992,-9.8452568,-0.93613285,Treppe3
1900,4.0685403,1.4748282,-9.8045549,-0.8858546,Treppe3
1901,4.0705403,1.460463,-9.763854,-0.82360536,Treppe3
1902,4.0725404,1.4437037,-9.7303352,-0.74938512,Treppe3
1903,4.0745404,1.4293385,-9.7063932,-0.67995328,Treppe3
1904,4.0765404,1.4125791,-9.692028,-0.60333884,Treppe3
1905,4.0785404,1.3910311,-9.692028,-0.521936,Treppe3
1906,4.0805404,1.3670892,-9.7016048,-0.4405331,Treppe3
1907,4.0825401,1.340753,-9.7135754,-0.37349546,Treppe3
1908,4.0845392,1.3120226,-9.7279406,-0.32082301,Treppe3
1909,4.0865383,1.2713211,-9.7590656,-0.28251579,Treppe3
1910,4.0885374,1.2234371,-9.8045549,-0.25617957,Treppe3
1911,4.0905374,1.1779473,-9.8668041,-0.24420857,Treppe3
1912,4.0925374,1.1348516,-9.931448,-0.24181437,Treppe3
1913,4.0945373,1.0893618,-10.012851,-0.260968,Treppe3
1914,4.0965373,1.0510546,-10.108619,-0.28730419,Treppe3
1915,4.0985373,1.0247183,-10.201993,-0.33518824,Treppe3
1916,4.1005372,1.0055647,-10.326491,-0.40462008,Treppe3
1917,4.1025381,0.98880529,-10.441413,-0.45968673,Treppe3
1918,4.104539,0.98641109,-10.551546,-0.521936,Treppe3
1919,4.106539,1.0127473,-10.673651,-0.58179098,Treppe3
1920,4.108539,1.0510546,-10.786178,-0.63685763,Treppe3
1921,4.1105391,1.1420342,-10.910676,-0.71107793,Treppe3
1922,4.1125391,1.2378023,-11.023204,-0.77811557,Treppe3
1923,4.1145391,1.3383588,-11.126155,-0.83797061,Treppe3
1924,4.1165392,1.4700398,-11.229105,-0.89543146,Treppe3
1925,4.1185392,1.6352397,-11.327268,-0.94331545,Treppe3
1926,4.1205391,1.8267759,-11.423036,-0.98880529,Treppe3
1927,4.1225382,2.0111294,-11.509227,-1.0247183,Treppe3
1928,4.1245373,2.2170308,-11.593024,-1.0582372,Treppe3
1929,4.1265364,2.408567,-11.662456,-1.0893618,Treppe3
1930,4.1285355,2.6168625,-11.729493,-1.1204864,Treppe3
1931,4.1305355,2.8347349,-11.789349,-1.1420342,Treppe3
1932,4.1325355,3.0334535,-11.839626,-1.1611878,Treppe3
1933,4.1345355,3.2369606,-11.880328,-1.1755531,Treppe3
1934,4.1365355,3.4332852,-11.916241,-1.1851299,Treppe3
1935,4.1385355,3.6104562,-11.949759,-1.1923125,Treppe3
1936,4.1405356,3.7852328,-11.976096,-1.1899183,Treppe3
1937,4.1425365,3.9480386,-11.99525,-1.1875241,Treppe3
1938,4.1445374,4.0869021,-12.007221,-1.1827357,Treppe3
1939,4.1465383,4.2185836,-12.009615,-1.1707647,Treppe3
1940,4.1485392,4.343082,-12.009615,-1.1540052,Treppe3
1941,4.1505392,4.4603977,-12.002433,-1.127669,Treppe3
1942,4.152539,4.5609541,-11.990461,-1.103727,Treppe3
1943,4.154539,4.6543279,-11.971308,-1.0773908,Treppe3
1944,4.156539,4.7357311,-11.952154,-1.0486604,Treppe3
1945,4.158539,4.8099513,-11.928212,-1.0127473,Treppe3
1946,4.160539,4.8698063,-11.885117,-0.9552865,Treppe3
1947,4.1625381,4.9179897,-11.849203,-0.90979666,Treppe3
1948,4.1645373,4.9467201,-11.808502,-0.85233581,Treppe3
1949,4.1665364,4.9562969,-11.760618,-0.78290397,Treppe3
1950,4.1685355,4.9562969,-11.717523,-0.71586633,Treppe3
1951,4.1705346,4.9371433,-11.679215,-0.64882869,Treppe3
1952,4.1725345,4.8988361,-11.643302,-0.59376204,Treppe3
1953,4.1745345,4.8530469,-11.612178,-0.54827219,Treppe3
1954,4.1765345,4.7860093,-11.597813,-0.521936,Treppe3
1955,4.1785344,4.7070007,-11.59063,-0.521936,Treppe3
1956,4.1805344,4.6088381,-11.602601,-0.55784899,Treppe3
1957,4.1825349,4.5082817,-11.621755,-0.60812724,Treppe3
1958,4.1845358,4.3789949,-11.655273,-0.69671267,Treppe3
1959,4.1865367,4.2497082,-11.688792,-0.79726917,Treppe3
1960,4.1885376,4.0869021,-11.736676,-0.94331545,Treppe3
1961,4.1905377,3.8905778,-11.796531,-1.1420342,Treppe3
1962,4.1925377,3.7014358,-11.853992,-1.3455414,Treppe3
1963,4.1945375,3.4859576,-11.918635,-1.5945383,Treppe3
1964,4.1965375,3.2465374,-11.988068,-1.8794483,Treppe3
1965,4.1985375,3.0238767,-12.050317,-2.1499932,Treppe3
1966,4.2005375,2.7844565,-12.11496,-2.4444799,Treppe3
1967,4.2025366,2.5617957,-12.170027,-2.7174189,Treppe3
1968,4.2045365,2.3319526,-12.220304,-3.0023289,Treppe3
1969,4.2065365,2.1068976,-12.258612,-3.2824504,Treppe3
1970,4.2085365,1.8962077,-12.287342,-3.5410242,Treppe3
1971,4.2105364,1.7022774,-12.306496,-3.763685,Treppe3
1972,4.2125364,1.5418659,-12.318467,-3.9432502,Treppe3
1973,4.2145364,1.4125791,-12.320861,-4.0845079,Treppe3
1974,4.2165364,1.316811,-12.318467,-4.1946416,Treppe3
1975,4.2185365,1.2545617,-12.311284,-4.259285,Treppe3
1976,4.2205365,1.2234371,-12.294525,-4.283227,Treppe3
1977,4.2225374,1.2090719,-12.272977,-4.2880154,Treppe3
1978,4.2245383,1.2186487,-12.241853,-4.2521024,Treppe3
1979,4.2265392,1.2378023,-12.196362,-4.1802764,Treppe3
1980,4.2285401,1.2689269,-12.148479,-4.1012673,Treppe3
1981,4.230541,1.30484,-12.083836,-3.9959226,Treppe3
1982,4.232541,1.3359646,-12.014403,-3.892972,Treppe3
1983,4.234541,1.3623008,-11.949759,-3.7804444,Treppe3
1984,4.236541,1.3814543,-11.873145,-3.667917,Treppe3
1985,4.238541,1.4006079,-11.801319,-3.5697548,Treppe3
1986,4.240541,1.4293385,-11.736676,-3.4691982,Treppe3
1987,4.2425405,1.4556746,-11.688792,-3.3806129,Treppe3
1988,4.2445396,1.4820108,-11.655273,-3.301604,Treppe3
1989,4.2465399,1.5131354,-11.640908,-3.2202013,Treppe3
1990,4.2485398,1.5442601,-11.640908,-3.1340101,Treppe3
1991,4.2505398,1.5825673,-11.650485,-3.0286651,Treppe3
1992,4.2525398,1.6184803,-11.667244,-2.9233203,Treppe3
1993,4.25454,1.6519991,-11.688792,-2.7916391,Treppe3
1994,4.2565399,1.6783354,-11.712734,-2.6575639,Treppe3
1995,4.2585399,1.6927006,-11.741465,-2.4923639,Treppe3
1996,4.2605399,1.6879122,-11.765407,-2.3032219,Treppe3
1997,4.2625408,1.673547,-11.786954,-2.1212628,Treppe3
1998,4.2645408,1.6448165,-11.806108,-1.9177556,Treppe3
1999,4.2665409,1.5993267,-11.820473,-1.7070658,Treppe3
2000,4.2685409,1.5466543,-11.832444,-1.520318,Treppe3
2001,4.2705409,1.4365211,-11.83005,-1.340753,Treppe3
2002,4.2725412,1.3215994,-11.822867,-1.1994951,Treppe3
2003,4.2745412,1.1994951,-11.813291,-1.091756,Treppe3
2004,4.2765412,1.0414777,-11.789349,-1.0127473,Treppe3
2005,4.2785412,0.85473001,-11.751041,-0.9720459,Treppe3
2006,4.2805412,0.65122288,-11.705551,-0.9744401,Treppe3
2007,4.2825402,0.46208093,-11.662456,-0.99838209,Treppe3
2008,4.2845394,0.260968,-11.609783,-1.0582372,Treppe3
2009,4.2865384,0.079008654,-11.554717,-1.1252748,Treppe3
2010,4.2885376,-0.11252748,-11.487679,-1.2114661,Treppe3
2011,4.2905376,-0.31124622,-11.413459,-1.3215994,Treppe3
2012,4.2925376,-0.49320555,-11.346421,-1.4317327,Treppe3
2013,4.2945367,-0.67755908,-11.284172,-1.5490485,Treppe3
2014,4.2965358,-0.85712421,-11.233893,-1.6639702,Treppe3
2015,4.2985358,-1.0199299,-11.195586,-1.7645266,Treppe3
2016,4.3005358,-1.1827357,-11.171644,-1.8555063,Treppe3
2017,4.3025366,-1.3431472,-11.159674,-1.9297266,Treppe3
2018,4.3045375,-1.4820108,-11.150097,-1.9847932,Treppe3
2019,4.3065372,-1.6089035,-11.145308,-2.0135236,Treppe3
2020,4.3085372,-1.7357962,-11.157279,-2.0159178,Treppe3
2021,4.3105372,-1.8698715,-11.171644,-1.9871874,Treppe3
2022,4.3125373,-1.9967642,-11.183616,-1.946486,Treppe3
2023,4.3145373,-2.1428106,-11.193192,-1.8842367,Treppe3
2024,4.3165373,-2.2792799,-11.202769,-1.8195933,Treppe3
2025,4.3185374,-2.4253263,-11.221923,-1.745373,Treppe3
2026,4.3205374,-2.5737667,-11.26023,-1.6687586,Treppe3
2027,4.3225365,-2.7030537,-11.303326,-1.6017209,Treppe3
2028,4.3245356,-2.8323407,-11.367969,-1.532289,Treppe3
2029,4.3265347,-2.9496565,-11.446978,-1.4532804,Treppe3
2030,4.3285338,-3.0693667,-11.518804,-1.3742718,Treppe3
2031,4.3305338,-3.1962593,-11.595418,-1.2761095,Treppe3
2032,4.3325338,-3.3327289,-11.672032,-1.1611878,Treppe3
2033,4.3345337,-3.4596214,-11.73907,-1.055843,Treppe3
2034,4.3365337,-3.5889084,-11.801319,-0.93852705,Treppe3
2035,4.3385337,-3.7181952,-11.85878,-0.82839382,Treppe3
2036,4.3405337,-3.845088,-11.911452,-0.74938512,Treppe3
2037,4.3425343,-3.9504328,-11.959337,-0.68713588,Treppe3
2038,4.3445352,-4.0318356,-12.016798,-0.63446343,Treppe3
2039,4.3465361,-4.0869021,-12.074259,-0.58657944,Treppe3
2040,4.348537,-4.0964789,-12.150873,-0.51714754,Treppe3
2041,4.350537,-4.0653543,-12.241853,-0.41898531,Treppe3
2042,4.3525366,-4.0174704,-12.330438,-0.31842881,Treppe3
2043,4.3545375,-3.940856,-12.433389,-0.18914193,Treppe3
2044,4.3565384,-3.8546648,-12.545917,-0.052672438,Treppe3
2045,4.3585384,-3.739743,-12.651261,0.067037649,Treppe3
2046,4.3605384,-3.5984852,-12.756606,0.20111294,Treppe3
2047,4.3625375,-3.4596214,-12.852374,0.33039984,Treppe3
2048,4.3645367,-3.2944214,-12.94096,0.47644615,Treppe3
2049,4.3665358,-3.0885203,-13.022363,0.63685763,Treppe3
2050,4.3685349,-2.8826189,-13.091794,0.79008657,Treppe3
2051,4.3705342,-2.5689783,-13.142073,0.9840169,Treppe3
2052,4.3725341,-2.2601264,-13.175591,1.1611878,Treppe3
2053,4.3745341,-1.9057846,-13.182774,1.3359646,Treppe3
2054,4.3765341,-1.5729905,-13.177985,1.4891934,Treppe3
2055,4.378534,-1.2066777,-13.154043,1.6232687,Treppe3
2056,4.380534,-0.81163436,-13.110948,1.733402,Treppe3
2057,4.3825348,-0.4381389,-13.063064,1.8243817,Treppe3
2058,4.3845357,-0.031124622,-12.993632,1.8890251,Treppe3
2059,4.3865366,0.34715924,-12.912229,1.9321208,Treppe3
2060,4.3885375,0.75417352,-12.83322,1.9608512,Treppe3
2061,4.3905375,1.1683705,-12.747029,1.9967642,Treppe3
2062,4.3925376,1.5298948,-12.66802,2.0446482,Treppe3
2063,4.3945376,1.8483237,-12.586617,2.1332338,Treppe3
2064,4.3965376,2.1092918,-12.505215,2.2361844,Treppe3
2065,4.3985377,2.3223755,-12.430994,2.3223755,Treppe3
2066,4.4005381,2.5402479,-12.368745,2.3558946,Treppe3
2067,4.4025376,2.7389667,-12.320861,2.3558946,Treppe3
2068,4.4045386,2.9257145,-12.284948,2.3247697,Treppe3
2069,4.4065386,3.1459811,-12.277765,2.219425,Treppe3
2070,4.4085385,3.3806129,-12.296919,1.9991584,Treppe3
2071,4.4105385,3.5673606,-12.335226,1.6424223,Treppe3
2072,4.4125388,3.6990416,-12.373533,1.2713211,Treppe3
2073,4.4145388,3.7421372,-12.416629,0.84754741,Treppe3
2074,4.4165388,3.7373488,-12.454937,0.46686932,Treppe3
2075,4.4185388,3.6535518,-12.486061,0.11971009,Treppe3
2076,4.420538,3.5218706,-12.505215,-0.16280572,Treppe3
2077,4.4225389,3.394978,-12.510003,-0.38786069,Treppe3
2078,4.4245398,3.2728736,-12.490849,-0.57939678,Treppe3
2079,4.4265407,3.1842883,-12.462119,-0.75896192,Treppe3
2080,4.4285416,3.1268275,-12.435782,-0.92416185,Treppe3
2081,4.4305424,3.0933087,-12.39987,-1.0965444,Treppe3
2082,4.4325424,3.0286651,-12.349591,-1.2497733,Treppe3
2083,4.4345424,2.9376855,-12.296919,-1.3718776,Treppe3
2084,4.4365421,2.7676971,-12.220304,-1.4437037,Treppe3
2085,4.4385421,2.5163059,-12.11496,-1.4748282,Treppe3
2086,4.4405421,2.2002714,-11.976096,-1.4796166,Treppe3
2087,4.4425412,1.9009962,-11.837233,-1.4748282,Treppe3
2088,4.4445403,1.5993267,-11.674427,-1.4508862,Treppe3
2089,4.4465403,1.3359646,-11.521198,-1.4197617,Treppe3
2090,4.4485403,1.091756,-11.339238,-1.3670892,Treppe3
2091,4.4505402,0.8810662,-11.133337,-1.292869,Treppe3
2092,4.4525402,0.70868373,-10.939406,-1.2162545,Treppe3
2093,4.4545402,0.56024319,-10.711958,-1.1204864,Treppe3
2094,4.4565401,0.4309563,-10.467749,-1.0175357,Treppe3
2095,4.4585401,0.32561144,-10.247482,-0.92416185,Treppe3
2096,4.4605396,0.23702596,-10.005669,-0.83557642,Treppe3
2097,4.4625405,0.16759412,-9.7925844,-0.76135612,Treppe3
2098,4.4645395,0.11971009,-9.6034422,-0.69910687,Treppe3
2099,4.4665395,0.086191259,-9.4143,-0.64404029,Treppe3
2100,4.4685395,0.071826048,-9.2179756,-0.58897364,Treppe3
2101,4.4705396,0.059855044,-9.0264397,-0.5315128,Treppe3
2102,4.4725397,0.059855044,-8.8516626,-0.47884035,Treppe3
2103,4.4745397,0.079008654,-8.6768866,-0.42616791,Treppe3
2104,4.4765397,0.088585466,-8.5284462,-0.38067806,Treppe3
2105,4.4785397,0.076614454,-8.4039469,-0.34237084,Treppe3
2106,4.4805405,0.038307227,-8.2962084,-0.31364042,Treppe3
2107,4.4825396,-0.011971008,-8.2028341,-0.28730419,Treppe3
2108,4.4845387,-0.10055647,-8.1118546,-0.25378537,Treppe3
2109,4.4865378,-0.19393034,-8.0304518,-0.22266077,Treppe3
2110,4.4885369,-0.30406362,-7.9394722,-0.18674773,Treppe3
2111,4.4905369,-0.4357447,-7.8269448,-0.15083471,Treppe3
2112,4.4925369,-0.56263739,-7.7048402,-0.11971009,Treppe3
2113,4.4945369,-0.67995328,-7.5875244,-0.093373865,Treppe3
2114,4.4965372,-0.81881696,-7.4606318,-0.064643443,Treppe3
2115,4.4985372,-0.9552865,-7.3313451,-0.04070143,Treppe3
2116,4.5005379,-1.103727,-7.204452,0.0023942017,Treppe3
2117,4.5025388,-1.2258313,-7.0919247,0.04309563,Treppe3
2118,4.5045397,-1.3215994,-6.9913683,0.074220255,Treppe3
2119,4.5065397,-1.3742718,-6.8860235,0.098162271,Treppe3
2120,4.5085397,-1.4030021,-6.7711015,0.11252748,Treppe3
2121,4.5105398,-1.4317327,-6.6585741,0.11013328,Treppe3
2122,4.5125394,-1.4628572,-6.5604119,0.098162271,Treppe3
2123,4.5145394,-1.5059528,-6.4814034,0.067037649,Treppe3
2124,4.5165394,-1.5562311,-6.41676,0.02873042,Treppe3
2125,4.5185405,-1.6256629,-6.3664818,-0.021547815,Treppe3
2126,4.5205405,-1.6879122,-6.3353572,-0.081402861,Treppe3
2127,4.5225396,-1.7381904,-6.3114147,-0.12928689,Treppe3
2128,4.5245387,-1.7764976,-6.3090205,-0.16759412,Treppe3
2129,4.5265378,-1.8028339,-6.3257804,-0.19153613,Treppe3
2130,4.5285369,-1.8219875,-6.3521166,-0.20590134,Treppe3
2131,4.530537,-1.8148049,-6.3856354,-0.20350714,Treppe3
2132,4.532537,-1.8028339,-6.41676,-0.20111294,Treppe3
2133,4.5345369,-1.7860745,-6.4454904,-0.20111294,Treppe3
2134,4.5365369,-1.7405846,-6.464644,-0.22266077,Treppe3
2135,4.5385369,-1.697489,-6.4742208,-0.2657564,Treppe3
2136,4.5405369,-1.7022774,-6.4861917,-0.32561144,Treppe3
2137,4.5425382,-1.721431,-6.4981627,-0.38786069,Treppe3
2138,4.5445391,-1.745373,-6.5101337,-0.45968673,Treppe3
2139,4.54654,-1.7621324,-6.5221047,-0.5243302,Treppe3
2140,4.5485409,-1.757344,-6.5340757,-0.59376204,Treppe3
2141,4.5505409,-1.7381904,-6.5412583,-0.66798228,Treppe3
2142,4.5525409,-1.7118542,-6.5436525,-0.73501992,Treppe3
2143,4.554541,-1.6687586,-6.5340757,-0.80205756,Treppe3
2144,4.556541,-1.6160861,-6.5197105,-0.87148941,Treppe3
2145,4.5585409,-1.5658079,-6.5029511,-0.93613285,Treppe3
2146,4.5605403,-1.508347,-6.4790092,-0.99598789,Treppe3
2147,4.5625394,-1.4389153,-6.4502788,-1.043872,Treppe3
2148,4.5645385,-1.3694834,-6.4215484,-1.0845734,Treppe3
2149,4.5665376,-1.2856863,-6.3904238,-1.1180922,Treppe3
2150,4.5685367,-1.1971009,-6.3497224,-1.1492168,Treppe3
2151,4.5705358,-1.1133038,-6.2970495,-1.1755531,Treppe3
2152,4.5725362,-1.0366893,-6.2467713,-1.1971009,Treppe3
2153,4.5745362,-0.9672575,-6.182128,-1.2114661,Treppe3
2154,4.5765363,-0.90979666,-6.1150904,-1.2234371,Treppe3
2155,4.5785351,-0.87388361,-6.0312934,-1.2306197,Treppe3
2156,4.5805352,-0.84994161,-5.930737,-1.2378023,Treppe3
2157,4.5825359,-0.83318222,-5.834969,-1.2449849,Treppe3
2158,4.5845368,-0.82839382,-5.7176528,-1.2569559,Treppe3
2159,4.5865377,-0.84036481,-5.5740008,-1.2737153,Treppe3
2160,4.5885386,-0.85951841,-5.4327431,-1.2880806,Treppe3
2161,4.5905385,-0.89303726,-5.2747254,-1.3024458,Treppe3
2162,4.5925385,-0.93852705,-5.1119199,-1.3192052,Treppe3
2163,4.5945385,-0.9840169,-4.9682679,-1.3359646,Treppe3
2164,4.5965385,-1.0414777,-4.8243165,-1.352724,Treppe3
2165,4.5985385,-1.1061212,-4.6854529,-1.3742718,Treppe3
2166,4.6005385,-1.1755531,-4.5561657,-1.3982137,Treppe3
2167,4.6025372,-1.2401965,-4.4436383,-1.4197617,Treppe3
2168,4.6045372,-1.3024458,-4.3454762,-1.4437037,Treppe3
2169,4.6065372,-1.3599066,-4.2664676,-1.4676456,Treppe3
2170,4.6085371,-1.4197617,-4.19943,-1.4939818,Treppe3
2171,4.6105371,-1.4700398,-4.1467571,-1.5275006,Treppe3
2172,4.6125371,-1.5107412,-4.1084499,-1.5610195,Treppe3
2173,4.614537,-1.5418659,-4.0869021,-1.6041151,Treppe3
2174,4.616537,-1.5610195,-4.0821137,-1.6519991,Treppe3
2175,4.618537,-1.5705963,-4.0845079,-1.6950948,Treppe3
2176,4.620537,-1.5753847,-4.1012673,-1.7429788,Treppe3
2177,4.6225379,-1.5777789,-4.1299977,-1.7980455,Treppe3
2178,4.6245388,-1.5777789,-4.1563339,-1.8507179,Treppe3
2179,4.6265397,-1.5753847,-4.1850648,-1.9153614,Treppe3
2180,4.6285406,-1.5705963,-4.2161894,-1.9871874,Treppe3
2181,4.6305415,-1.5514427,-4.2497082,-2.0685902,Treppe3
2182,4.6325416,-1.5275006,-4.2760444,-2.1452048,Treppe3
2183,4.6345416,-1.496376,-4.3023806,-2.2170308,Treppe3
2184,4.6365415,-1.4508862,-4.3287168,-2.2960393,Treppe3
2185,4.6385415,-1.3958195,-4.3526587,-2.3870192,Treppe3
2186,4.6405415,-1.3359646,-4.3718123,-2.4899697,Treppe3
2187,4.6425407,-1.2785037,-4.3885717,-2.5881321,Treppe3
2188,4.6445398,-1.2042835,-4.4077253,-2.6910827,Treppe3
2189,4.6465398,-1.1324574,-4.4268789,-2.7892449,Treppe3
2190,4.6485398,-1.0462662,-4.4532151,-2.8969841,Treppe3
2191,4.6505398,-0.94331545,-4.4843397,-3.0214825,Treppe3
2192,4.6525398,-0.84275901,-4.5154643,-3.1364043,Treppe3
2193,4.6545398,-0.72783732,-4.5561657,-3.2680852,Treppe3
2194,4.6565399,-0.60094464,-4.6088381,-3.4165258,Treppe3
2195,4.6585399,-0.48362875,-4.6567221,-3.560178,Treppe3
2196,4.6605399,-0.33758244,-4.7213659,-3.7469256,Treppe3
2197,4.6625408,-0.20350714,-4.7836151,-3.9193082,Treppe3
2198,4.6645409,-0.079008654,-4.8434701,-4.0845079,Treppe3
2199,4.6665409,0.045489833,-4.9132013,-4.2736502,Treppe3
2200,4.6685409,0.15562311,-4.9946041,-4.4795513,Treppe3
2201,4.6705409,0.24660277,-5.0903721,-4.6998181,Treppe3
2202,4.672542,0.31842881,-5.1813517,-4.9036245,Treppe3
2203,4.674542,0.33758244,-5.2890906,-5.0975547,Treppe3
2204,4.676542,0.32800564,-5.3992243,-5.2723312,Treppe3
2205,4.678542,0.30406362,-5.5332994,-5.4518967,Treppe3
2206,4.6805419,0.29209262,-5.6984992,-5.6338558,Treppe3
2207,4.682541,0.29927522,-5.8613052,-5.8014498,Treppe3
2208,4.6845401,0.32082301,-6.050447,-5.9762268,Treppe3
2209,4.6865392,0.34237084,-6.2659249,-6.146215,Treppe3
2210,4.6885383,0.35194764,-6.4694324,-6.2922611,Treppe3
2211,4.6905383,0.33758244,-6.7184291,-6.4239426,Treppe3
2212,4.6925383,0.30166942,-6.9458785,-6.5244989,Treppe3
2213,4.6945382,0.260968,-7.1565681,-6.5963249,Treppe3
2214,4.6965382,0.21068975,-7.3768349,-6.6202669,Treppe3
2215,4.6985382,0.15322891,-7.6162548,-6.5987191,Treppe3
2216,4.7005383,0.04309563,-7.8676462,-6.5316815,Treppe3
2217,4.7025392,-0.1436521,-8.1022778,-6.440702,Treppe3
2218,4.7045401,-0.48362875,-8.3895817,-6.3066263,Treppe3
2219,4.7065401,-0.77332717,-8.681675,-6.1893106,Treppe3
2220,4.7085401,-0.9600749,-9.0479879,-6.0767832,Treppe3
2221,4.7105402,-1.0510546,-9.438242,-5.9522848,Treppe3
2222,4.7125402,-1.0654198,-9.7854013,-5.8421516,Treppe3
2223,4.7145401,-0.94331545,-10.122984,-5.7511716,Treppe3
2224,4.7165401,-0.77332717,-10.436625,-5.672163,Treppe3
2225,4.7185401,-0.61530983,-10.711958,-5.6027312,Treppe3
2226,4.72054,-0.48362875,-10.977715,-5.5356936,Treppe3
2227,4.7225391,-0.41898531,-11.229105,-5.4878097,Treppe3
2228,4.7245382,-0.40462008,-11.45416,-5.4518967,Treppe3
2229,4.7265373,-0.46208093,-11.695974,-5.4255605,Treppe3
2230,4.7285364,-0.5291186,-11.942577,-5.4088011,Treppe3
2231,4.7305365,-0.5267244,-12.181997,-5.4159837,Treppe3
2232,4.7325356,-0.46926352,-12.395082,-5.4375315,Treppe3
2233,4.7345357,-0.31124622,-12.600983,-5.4997807,Treppe3
2234,4.7365357,-0.14604631,-12.778153,-5.588366,Treppe3
2235,4.7385357,0.011971008,-12.948142,-5.7607484,Treppe3
2236,4.7405358,0.1340753,-13.113342,-6.0360818,Treppe3
2237,4.7425366,0.22026655,-13.259388,-6.332963,Treppe3
2238,4.7445376,0.25857377,-13.398252,-6.7256117,Treppe3
2239,4.7465384,0.25139117,-13.529933,-7.1852984,Treppe3
2240,4.7485393,0.22744916,-13.642461,-7.6234374,Treppe3
2241,4.7505393,0.19153613,-13.754988,-8.1118546,Treppe3
2242,4.7525393,0.17477672,-13.867516,-8.6242142,Treppe3
2243,4.7545393,0.17477672,-13.970467,-9.0862951,Treppe3
2244,4.7565393,0.21547815,-14.078205,-9.5316162,Treppe3
2245,4.7585393,0.28969839,-14.20031,-9.931448,Treppe3
2246,4.7605392,0.46208093,-14.33199,-10.285789,Treppe3
2247,4.7625383,0.63206923,-14.454095,-10.573094,Treppe3
2248,4.7645374,0.80205756,-14.569016,-10.800543,Treppe3
2249,4.7665365,1.0079589,-14.693515,-10.953772,Treppe3
2250,4.7685356,1.2425907,-14.830284,-11.02081,Treppe3
2251,4.7705347,1.508347,-14.971541,-10.99208,Treppe3
2252,4.7725347,1.7477672,-15.098434,-10.927436,Treppe3
2253,4.7745347,1.9728222,-15.227721,-10.786178,Treppe3
2254,4.7765347,2.1691468,-15.342643,-10.623372,Treppe3
2255,4.7785347,2.3511062,-15.445594,-10.398317,Treppe3
2256,4.7805347,2.4899697,-15.519814,-10.132561,Treppe3
2257,4.7825357,2.5761611,-15.562909,-9.8907461,Treppe3
2258,4.7845366,2.5833437,-15.54615,-9.6489325,Treppe3
2259,4.7865375,2.5139117,-15.459959,-9.421483,Treppe3
2260,4.7885384,2.4205379,-15.347431,-9.2275524,Treppe3
2261,4.7905384,2.2266076,-15.103223,-9.0503817,Treppe3
2262,4.7925387,2.030283,-14.847043,-8.8995466,Treppe3
2263,4.7945387,1.8339585,-14.578593,-8.7702599,Treppe3
2264,4.7965386,1.5825673,-14.231434,-8.6409731,Treppe3
2265,4.7985386,1.2880806,-13.810055,-8.5068979,Treppe3
2266,4.8005386,0.9672575,-13.343185,-8.3584576,Treppe3
2267,4.8025377,0.67755908,-12.90744,-8.2148056,Treppe3
2268,4.8045376,0.39504328,-12.440571,-8.0496054,Treppe3
2269,4.8065376,0.15322891,-12.01201,-7.8939824,Treppe3
2270,4.8085376,-0.052672438,-11.569082,-7.726388,Treppe3
2271,4.8105376,-0.21787235,-11.138125,-7.5563998,Treppe3
2272,4.8125376,-0.34955344,-10.757447,-7.4055653,Treppe3
2273,4.8145376,-0.45250413,-10.391134,-7.2475476,Treppe3
2274,4.8165376,-0.5291186,-10.036793,-7.0775595,Treppe3
2275,4.8185376,-0.58657944,-9.732729,-6.9147539,Treppe3
2276,4.8205376,-0.63685763,-9.445425,-6.6873045,Treppe3
2277,4.8225381,-0.67755908,-9.2083988,-6.4718266,Treppe3
2278,4.824539,-0.70628953,-9.0120745,-6.2635307,Treppe3
2279,4.8265399,-0.72544312,-8.8492689,-6.0193224,Treppe3
2280,4.8285408,-0.75896192,-8.7127991,-5.7368064,Treppe3
2281,4.8305418,-0.81402856,-8.6122427,-5.4183779,Treppe3
2282,4.8325418,-0.8762778,-8.538023,-5.1143141,Treppe3
2283,4.8345418,-0.9576807,-8.4973211,-4.7716441,Treppe3
2284,4.8365419,-1.0366893,-8.4781675,-4.4556093,Treppe3
2285,4.8385419,-1.1204864,-8.5021095,-4.1276035,Treppe3
2286,4.8405418,-1.1971009,-8.5883007,-3.7972038,Treppe3
2287,4.8425409,-1.2617443,-8.6936455,-3.5098996,Treppe3
2288,4.84454,-1.3144168,-8.856451,-3.2345665,Treppe3
2289,4.84654,-1.3479356,-9.0791121,-2.9855695,Treppe3
2290,4.8485399,-1.3718776,-9.3065615,-2.7748797,Treppe3
2291,4.8505399,-1.3886369,-9.5938654,-2.5785553,Treppe3
2292,4.8525393,-1.3958195,-9.9458132,-2.408567,Treppe3
2293,4.8545393,-1.4006079,-10.290578,-2.2649148,Treppe3
2294,4.8565394,-1.4053963,-10.697593,-2.1380222,Treppe3
2295,4.8585394,-1.3958195,-11.157279,-2.0254946,Treppe3
2296,4.8605394,-1.364695,-11.662456,-1.9297266,Treppe3
2297,4.8625403,-1.3215994,-12.13172,-1.8531121,Treppe3
2298,4.8645404,-1.2473791,-12.627319,-1.7956513,Treppe3
2299,4.8665404,-1.1659763,-13.077429,-1.7525556,Treppe3
2300,4.8685404,-1.0534488,-13.537116,-1.7310078,Treppe3
2301,4.8705404,-0.92416185,-13.97286,-1.7286136,Treppe3
2302,4.8725404,-0.80684596,-14.339173,-1.7166426,Treppe3
2303,4.8745404,-0.71826053,-14.6169,-1.6567876,Treppe3
2304,4.8765404,-0.64882869,-14.760852,-1.5298948,Treppe3
2305,4.8785404,-0.57700258,-14.813524,-1.3862427,Treppe3
2306,4.8805404,-0.40462008,-14.638449,-1.1228806,Treppe3
2307,4.8825399,-0.2657564,-14.499585,-0.91219085,Treppe3
2308,4.884539,-0.10534488,-14.209887,-0.60094464,Treppe3
2309,4.8865381,-0.0023942017,-13.757382,-0.17717093,Treppe3
2310,4.8885372,0.04070143,-13.273753,0.24181437,Treppe3
2311,4.8905372,-0.076614454,-12.507609,0.75177932,Treppe3
2312,4.8925371,-0.22984336,-11.772589,1.1827357,Treppe3
2313,4.8945371,-0.40940848,-10.944195,1.5298948,Treppe3
2314,4.8965371,-0.66319388,-10.163686,1.7932571,Treppe3
2315,4.898537,-0.9720459,-9.3137436,1.9680338,Treppe3
2316,4.900537,-1.3144168,-8.41113,2.0709844,Treppe3
2317,4.902538,-1.6328455,-7.5803418,2.1404164,Treppe3
