,gyr_time,gyrX,gyrY,gyrZ
0,0.024845082,0.029856039,0.027947085,-0.070325859
1,0.026845082,0.029856039,0.027947085,-0.070325859
2,0.028845082,0.029856039,0.027947085,-0.070325859
3,0.030843082,0.029856039,0.027947085,-0.070325859
4,0.032843082,-0.15829046,0.21059579,-0.028787024
5,0.034843082,-0.17600554,0.24113905,-0.021456642
6,0.036843082,-0.19677497,0.26618454,-0.012904529
7,0.038838582,-0.20349449,0.27962357,-0.010461068
8,0.040834582,-0.21998784,0.30405816,-0.0012980887
9,0.042834457,-0.22670737,0.31749722,0.0023671028
10,0.044834345,-0.23403774,0.34254268,0.0060322941
11,0.046834245,-0.23892467,0.35964692,0.007254025
12,0.048834154,-0.23892467,0.3669773,0.007254025
13,0.05083407,-0.23892467,0.38224894,0.0048105638
14,0.052833993,-0.23159428,0.39202276,-0.00068722339
15,0.054833993,-0.22915083,0.39385536,-0.0037415496
16,0.056833993,-0.21449006,0.39629883,-0.01779145
17,0.058833993,-0.20715968,0.3932445,-0.023900103
18,0.060833993,-0.20166188,0.39019018,-0.030008756
19,0.062833993,-0.18700112,0.37736201,-0.043447789
20,0.064835519,-0.1698969,0.3633121,-0.055054229
21,0.066835519,-0.15340354,0.345597,-0.067271538
22,0.068835519,-0.14546229,0.33399057,-0.070325859
23,0.070835473,-0.1259146,0.31016684,-0.082543164
24,0.072835429,-0.11430816,0.29978213,-0.088651821
25,0.074835387,-0.09476047,0.27229318,-0.097203933
26,0.076835347,-0.073991053,0.24602598,-0.10514518
27,0.078834308,-0.062384613,0.23380867,-0.10881037
28,0.080833308,-0.038560867,0.20754147,-0.11491902
29,0.082832343,-0.020234911,0.18555032,-0.12102768
30,0.084831411,-0.011071933,0.17211129,-0.12530373
31,0.086831377,0.0048105638,0.15012014,-0.12896892
32,0.088830943,0.017638734,0.12690726,-0.13324498
33,0.090831043,0.021914791,0.11957687,-0.13385585
34,0.092831009,0.029856039,0.1067487,-0.13446671
35,0.094830575,0.029245174,0.10247265,-0.13568844
36,0.096830541,0.024969118,0.10369437,-0.13446671
37,0.098831407,0.020082194,0.10735957,-0.13385585
38,0.10083231,0.0048105638,0.11530081,-0.1295798
39,0.10283234,-0.004352415,0.11652254,-0.1295798
40,0.10483237,-0.026954429,0.12568553,-0.12224941
41,0.10683241,-0.051999904,0.13057245,-0.11430816
42,0.10883244,-0.06421721,0.13057245,-0.1118647
43,0.11083247,-0.092317007,0.13729197,-0.10392345
44,0.11283187,-0.11614075,0.14095716,-0.095371336
45,0.11483187,-0.12835807,0.14645495,-0.091706142
46,0.11683184,-0.15096007,0.150731,-0.080099702
47,0.11883094,-0.16867517,0.15683965,-0.070936725
48,0.12083004,-0.18150334,0.16111571,-0.066049807
49,0.12282914,-0.19433151,0.16966783,-0.054443367
50,0.12482727,-0.20166188,0.17211129,-0.050778173
51,0.12682724,-0.21632266,0.182496,-0.03733914
52,0.1288265,-0.22120957,0.18982637,-0.033673946
53,0.1308265,-0.22487476,0.1965459,-0.026954429
54,0.13282654,-0.22976169,0.20021108,-0.023900103
55,0.13482657,-0.23098342,0.20387627,-0.018402316
56,0.1368266,-0.23342688,0.20570888,-0.017180584
57,0.1388275,-0.23403774,0.20815234,-0.016569721
58,0.1408284,-0.23220515,0.20570888,-0.018402316
59,0.1428293,-0.22853996,0.20082195,-0.016569721
60,0.1448302,-0.22853996,0.19715676,-0.01779145
61,0.14683024,-0.22182044,0.18982637,-0.020845776
62,0.14883064,-0.21571179,0.18188512,-0.023289237
63,0.15083064,-0.21326832,0.17944166,-0.024510968
64,0.15283064,-0.20899227,0.1769982,-0.028787024
65,0.15483104,-0.20715968,0.17638734,-0.031841353
66,0.15683104,-0.2083814,0.18921551,-0.038560867
67,0.15883017,-0.20899227,0.19410244,-0.040393464
68,0.16082927,-0.21265747,0.20021108,-0.04100433
69,0.16282837,-0.21815525,0.21181752,-0.046502117
70,0.16482747,-0.22120957,0.22220223,-0.050167307
71,0.16682657,-0.2224313,0.22953261,-0.053832501
72,0.16882563,-0.22670737,0.23136522,-0.050778173
73,0.1708256,-0.23098342,0.23441954,-0.053221636
74,0.1728262,-0.23098342,0.23564127,-0.051999904
75,0.17482617,-0.23220515,0.23564127,-0.051999904
76,0.17682617,-0.23525947,0.23258694,-0.051389039
77,0.17882703,-0.23464862,0.23258694,-0.051999904
78,0.18082793,-0.23587035,0.22708915,-0.050778173
79,0.18282883,-0.23892467,0.22647829,-0.050167307
80,0.18482973,-0.23831381,0.22403483,-0.050167307
81,0.18682976,-0.24564418,0.2228131,-0.04466952
82,0.1888305,-0.24442245,0.2209805,-0.04100433
83,0.19083053,-0.24747679,0.21914791,-0.037950002
84,0.19283053,-0.24686591,0.21609358,-0.028787024
85,0.19483053,-0.24258986,0.21242839,-0.017180584
86,0.1968305,-0.23709208,0.20937407,-0.0055741454
87,0.19882956,-0.22915083,0.20448714,-0.00068722339
88,0.20082866,-0.21876612,0.205098,0.0096974857
89,0.20282863,-0.20960313,0.20754147,0.016417004
90,0.2048286,-0.19066632,0.20754147,0.024358252
91,0.20682856,-0.1698969,0.20326541,0.029856039
92,0.20882856,-0.15951219,0.20570888,0.029856039
93,0.21082859,-0.14301883,0.20143281,0.028023442
94,0.21282863,-0.1259146,0.19593503,0.023136521
95,0.21482839,-0.11797335,0.1910481,0.017638734
96,0.21682843,-0.090484418,0.18738291,-0.00068722339
97,0.21882933,-0.059330288,0.18310685,-0.023900103
98,0.22083026,-0.043447789,0.18005253,-0.036117408
99,0.22283116,-0.011682798,0.15806139,-0.059941154
100,0.22483206,0.015806139,0.12935072,-0.083764896
101,0.22683266,0.044516806,0.1067487,-0.10086913
102,0.22883356,0.054290649,0.098196588,-0.10636691
103,0.23083356,0.081779584,0.093309663,-0.11919508
104,0.23283356,0.090942562,0.093920529,-0.12530373
105,0.23483356,0.11110111,0.10125092,-0.13263412
106,0.23683356,0.12331842,0.11285736,-0.13629931
107,0.23883269,0.1288162,0.11591168,-0.13752104
108,0.24083179,0.134314,0.11652254,-0.13752104
109,0.24283176,0.13859005,0.11102476,-0.13324498
110,0.24483172,0.1428661,0.10613783,-0.13202325
111,0.24683169,0.1428661,0.094531395,-0.12286028
112,0.24883166,0.14408784,0.078648902,-0.11369729
113,0.25083162,0.14592044,0.071318515,-0.1100321
114,0.25283159,0.1465313,0.054214291,-0.098425664
115,0.25483155,0.14592044,0.03772093,-0.091706142
116,0.25683155,0.14042264,0.017562376,-0.080099702
117,0.25883249,0.13797919,0.0090102628,-0.077045381
118,0.26083339,0.13675746,-0.0093156947,-0.074601918
119,0.26283342,0.134314,-0.015424347,-0.076434515
120,0.26483345,0.1288162,-0.025809057,-0.074601918
121,0.26683349,0.12148582,-0.039858956,-0.075212784
122,0.26883352,0.11720977,-0.042302419,-0.072769322
123,0.27083352,0.1062142,-0.046578474,-0.073380187
124,0.27283352,0.08972083,-0.058184914,-0.07154759
125,0.27483375,0.078725256,-0.058184914,-0.067882404
126,0.27683372,0.056123246,-0.059406646,-0.063606344
127,0.27883282,0.040851612,-0.06246097,-0.06421721
128,0.28083192,0.007254025,-0.057574049,-0.062384613
129,0.28283102,-0.027565295,-0.055741455,-0.05627596
130,0.28483012,-0.048334714,-0.054519724,-0.05261077
131,0.28683038,-0.10575604,-0.051465396,-0.043447789
132,0.28883038,-0.12286028,-0.048411071,-0.036728274
133,0.29083038,-0.14240795,-0.045967609,-0.034284811
134,0.29283038,-0.17417295,-0.04352415,-0.022678372
135,0.29483038,-0.20227276,-0.033750303,-0.014737124
136,0.29683038,-0.22670737,-0.030085113,-0.0098502021
137,0.29883125,-0.23587035,-0.025198191,-0.004352415
138,0.30083212,-0.25663975,-0.019089539,-0.0025198192
139,0.30283212,-0.26580274,-0.016035212,-0.0025198192
140,0.30483178,-0.28107437,-0.0038179078,-0.0025198192
141,0.30683182,-0.29023734,0.0047342055,-0.0067958757
142,0.30883185,-0.29390255,0.0090102628,-0.010461068
143,0.31083188,-0.29512426,0.010842858,-0.023289237
144,0.31283191,-0.28535044,0.01450805,-0.039782599
145,0.31483195,-0.27679831,0.01450805,-0.051999904
146,0.31683198,-0.24625506,0.010231993,-0.079488844
147,0.31883108,-0.23220515,0.0090102628,-0.088040955
148,0.32083018,-0.21815525,0.0016798794,-0.097814798
149,0.32282928,-0.18883371,-0.0062613687,-0.11247557
150,0.32482838,-0.15401439,-0.015424347,-0.12347114
151,0.32682835,-0.11858422,-0.022754731,-0.13324498
152,0.32882831,-0.09903653,-0.024587326,-0.13629931
153,0.33082828,-0.062995479,-0.028252518,-0.1417971
154,0.33282824,-0.042226061,-0.027641652,-0.14240795
155,0.33482824,-0.0031306844,-0.031306844,-0.14485142
156,0.33682828,0.037186421,-0.0355829,-0.14790575
157,0.33882918,0.053068917,-0.041691553,-0.14790575
158,0.34083008,0.087888241,-0.05085453,-0.15034921
159,0.34283098,0.11782064,-0.064904429,-0.15034921
160,0.34483188,0.13003793,-0.077121735,-0.14912748
161,0.34683191,0.15508342,-0.094225965,-0.14912748
162,0.34883194,0.17524196,-0.11988231,-0.14973834
163,0.35083198,0.18196149,-0.12965615,-0.14790575
164,0.35283198,0.19967657,-0.15225816,-0.14729488
165,0.35483198,0.21006128,-0.17608191,-0.14790575
166,0.35683198,0.2186134,-0.19746219,-0.15340354
167,0.35883111,0.22044599,-0.20784689,-0.15340354
168,0.36083024,0.22288945,-0.21884248,-0.15767959
169,0.36282938,0.22472206,-0.22434026,-0.15767959
170,0.36482884,0.22533292,-0.2359467,-0.16134478
171,0.36682794,0.21983513,-0.23777929,-0.15890132
172,0.36882791,0.22105686,-0.24144448,-0.15951219
173,0.37082787,0.21616994,-0.24205536,-0.1521818
174,0.37282784,0.21067216,-0.24327709,-0.14851661
175,0.3748278,0.20639609,-0.24144448,-0.14240795
176,0.37682777,0.20028745,-0.23655757,-0.13202325
177,0.37882847,0.19478965,-0.23228151,-0.12347114
178,0.38082934,0.1905136,-0.23167065,-0.11675162
179,0.38283024,0.18440494,-0.22495113,-0.10025826
180,0.38483114,0.17768542,-0.2182316,-0.091095276
181,0.38683117,0.17157678,-0.21517728,-0.08315403
182,0.3888312,0.16607898,-0.21273382,-0.081321433
183,0.39083124,0.16180293,-0.21273382,-0.076434515
184,0.39283127,0.15691601,-0.21212296,-0.073991053
185,0.3948304,0.14775303,-0.21456642,-0.073380187
186,0.39683014,0.14103352,-0.21151209,-0.076434515
187,0.39882924,0.13675746,-0.21029036,-0.079488844
188,0.4008292,0.12637275,-0.2096795,-0.082543164
189,0.40282917,0.12209669,-0.21090123,-0.084986627
190,0.40482913,0.11720977,-0.20906863,-0.085597493
191,0.4068291,0.10865766,-0.20357084,-0.089873552
192,0.40882877,0.1007164,-0.19929479,-0.089873552
193,0.41082873,0.098272949,-0.19318613,-0.088040955
194,0.41282873,0.090942562,-0.18585575,-0.08743009
195,0.41482876,0.085444778,-0.16875152,-0.081932299
196,0.4168288,0.077503525,-0.15531249,-0.075212784
197,0.41883013,0.073227473,-0.14614952,-0.077045381
198,0.42083063,0.067729682,-0.1339322,-0.067882404
199,0.42283153,0.064064495,-0.1253801,-0.06421721
200,0.42483243,0.056734111,-0.10949759,-0.054443367
201,0.42683333,0.053068917,-0.096058562,-0.04466952
202,0.42883336,0.050014593,-0.086895578,-0.039171733
203,0.43083336,0.050625458,-0.075900003,-0.031230485
204,0.43283336,0.048181996,-0.06612616,-0.026343564
205,0.43483336,0.04757113,-0.049021937,-0.020234911
206,0.43683336,0.050014593,-0.0355829,-0.011682798
207,0.43883266,0.051847186,-0.029474247,-0.0098502021
208,0.4408318,0.053068917,-0.016035212,-0.0031306844
209,0.44283176,0.056123246,-0.0099265603,-0.00068722339
210,0.44483173,0.054901514,-0.0044287732,-0.00068722339
211,0.44683169,0.06345363,0.0041233404,0.002977968
212,0.44883166,0.067118816,0.0035124752,0.002977968
213,0.45083163,0.065897085,0.0059559359,-7.6358156e-05
214,0.45283126,0.070173144,0.011453724,-7.6358156e-05
215,0.45483213,0.073838338,0.0090102628,-0.0019089539
216,0.45683236,0.073227473,0.012064588,-0.0019089539
217,0.45883322,0.074449204,0.013286319,-0.0031306844
218,0.46083326,0.075670935,0.0065668016,-0.0037415496
219,0.46283329,0.076281801,0.0053450707,-0.0037415496
220,0.46483332,0.076281801,-0.00015271631,-0.0025198192
221,0.46683336,0.077503525,-0.0050396384,-0.00068722339
222,0.46883369,0.079336122,-0.0074830991,-0.0019089539
223,0.47083372,0.081779584,-0.017867809,0.0005345071
224,0.47283376,0.081779584,-0.02397646,0.0048105638
225,0.47483376,0.084833913,-0.025809057,0.007254025
226,0.47683372,0.087277375,-0.032528576,0.015806139
227,0.47883239,0.092164293,-0.0355829,0.018249599
228,0.48083189,0.094607756,-0.038026363,0.02069306
229,0.48283099,0.098272949,-0.03924809,0.027412578
230,0.48483009,0.10193814,-0.038026363,0.034132097
231,0.48683005,0.10743593,-0.031306844,0.039019018
232,0.48882962,0.10804679,-0.028252518,0.040851612
233,0.49082962,0.11354458,-0.019700404,0.046960264
234,0.49282965,0.11598804,-0.015424347,0.050625458
235,0.49482968,0.1202641,-0.0056505036,0.051236324
236,0.49682972,0.12209669,0.0077885319,0.054290649
237,0.49883062,0.12148582,0.015118915,0.056123246
238,0.50083152,0.12087496,0.026725354,0.056734111
239,0.50283155,0.1202641,0.041996986,0.053679783
240,0.50483158,0.12087496,0.048105638,0.051847186
241,0.50683162,0.1202641,0.059712078,0.053068917
242,0.50883162,0.11415544,0.073151112,0.049403727
243,0.51083162,0.11415544,0.078038037,0.050625458
244,0.51283195,0.11354458,0.090255342,0.046960264
245,0.51483195,0.11171198,0.098196588,0.043295074
246,0.51683195,0.10987939,0.1067487,0.045127671
247,0.51883108,0.10865766,0.11346822,0.042684209
248,0.52083018,0.10865766,0.11835514,0.044516806
249,0.52282928,0.10743593,0.12873985,0.045738537
250,0.52482838,0.10560333,0.13484851,0.045127671
251,0.52682835,0.1043816,0.14095716,0.046960264
252,0.52882832,0.1043816,0.14401148,0.049403727
253,0.53082828,0.10560333,0.14034629,0.052458052
254,0.53282825,0.1043816,0.13790283,0.05551238
255,0.53482821,0.10560333,0.13545936,0.057344973
256,0.53682821,0.10682506,0.13057245,0.06345363
257,0.53882911,0.10804679,0.12018774,0.065897085
258,0.54083001,0.10865766,0.11835514,0.068340547
259,0.54283091,0.10987939,0.11346822,0.07078401
260,0.54483181,0.10987939,0.10735957,0.076281801
261,0.54683185,0.10926852,0.10552697,0.079946987
262,0.54883338,0.11171198,0.10552697,0.081168719
263,0.55083341,0.10804679,0.10735957,0.085444778
264,0.55283341,0.10865766,0.1085813,0.091553427
265,0.55483338,0.102549,0.11652254,0.093386024
266,0.55683334,0.093386024,0.12873985,0.10010554
267,0.55883244,0.090942562,0.13607024,0.10315987
268,0.56083154,0.080557853,0.14950927,0.10865766
269,0.56283064,0.077503525,0.15745051,0.11110111
270,0.56482974,0.064675361,0.1769982,0.11537717
271,0.56682884,0.046960264,0.19471329,0.11476631
272,0.56882918,0.035353824,0.23014349,0.11415544
273,0.57082921,0.032910366,0.25641069,0.10926852
274,0.57282924,0.029245174,0.31016684,0.102549
275,0.57482928,0.026801713,0.33765575,0.10010554
276,0.57682931,0.021914791,0.40362921,0.087888241
277,0.57883021,0.02069306,0.42134431,0.08239045
278,0.58083111,0.018249599,0.43661594,0.079946987
279,0.58283201,0.0096974857,0.46288314,0.072616607
280,0.58483291,-0.0025198192,0.48243082,0.067118816
281,0.58683291,-0.019013181,0.49037206,0.05917757
282,0.58883291,-0.028176159,0.48915035,0.057955839
283,0.59083291,-0.050778173,0.47937649,0.054290649
284,0.59283291,-0.061773747,0.472657,0.048792861
285,0.59483291,-0.083764896,0.45738536,0.048181996
286,0.59683291,-0.10575604,0.43783766,0.043295074
287,0.59883201,-0.11125384,0.43111816,0.042684209
288,0.60083198,-0.11797335,0.42806381,0.042073343
289,0.60283194,-0.11614075,0.4286747,0.041462477
290,0.60483191,-0.11369729,0.42378777,0.040851612
291,0.60683187,-0.098425664,0.40362921,0.03596469
292,0.60883074,-0.095371336,0.3914119,0.038408153
293,0.6108307,-0.086819224,0.37797287,0.037797287
294,0.61283067,-0.075212784,0.3565926,0.038408153
295,0.61483067,-0.061773747,0.33582318,0.037186421
296,0.6168307,-0.048334714,0.31688634,0.029856039
297,0.6188316,-0.044058654,0.30405816,0.029856039
298,0.6208325,-0.037950002,0.28389964,0.026801713
299,0.6228334,-0.031230485,0.26740626,0.024358252
300,0.6248343,-0.024510968,0.2405282,0.018249599
301,0.6268352,-0.019013181,0.21487185,0.0096974857
302,0.62883487,-0.01779145,0.19960022,0.0096974857
303,0.63083487,-0.0098502021,0.17272215,0.0035888334
304,0.63283484,-0.0074067409,0.14156802,-7.6358156e-05
305,0.6348348,-0.0031306844,0.12812899,-0.0025198192
306,0.63683477,0.0035888334,0.10247265,-0.0055741454
307,0.63883387,0.007254025,0.073761977,-0.011682798
308,0.64083297,0.010308351,0.056046885,-0.013515393
309,0.64283293,0.019471331,0.026725354,-0.018402316
310,0.6448329,0.021914791,-0.0044287732,-0.019013181
311,0.6468329,0.025579982,-0.030695979,-0.015958855
312,0.64883293,0.027412578,-0.041691553,-0.015958855
313,0.65083297,0.029245174,-0.060017511,-0.014737124
314,0.652833,0.031077769,-0.071013086,-0.013515393
315,0.65483303,0.029245174,-0.085062988,-0.0074067409
316,0.6568328,0.029245174,-0.098502018,-0.0061850105
317,0.6588337,0.027412578,-0.10399981,-7.6358156e-05
318,0.66083373,0.024969118,-0.11255192,0.0060322941
319,0.66283376,0.020082194,-0.11866058,0.010308351
320,0.66483376,0.016417004,-0.12415836,0.015195273
321,0.66683376,0.011530082,-0.13271047,0.022525655
322,0.66883376,0.0054214289,-0.14492778,0.031077769
323,0.67083376,-7.6358156e-05,-0.14614952,0.031077769
324,0.67283376,-0.004352415,-0.15531249,0.035353824
325,0.67483376,-0.012293663,-0.15897769,0.038408153
326,0.67683373,-0.01779145,-0.16508633,0.041462477
327,0.6788328,-0.020234911,-0.16752979,0.044516806
328,0.6808319,-0.024510968,-0.17180584,0.045127671
329,0.682831,-0.032452215,-0.16752979,0.051236324
330,0.6848301,-0.03733914,-0.16264287,0.056123246
331,0.68683006,-0.039171733,-0.15592335,0.061621033
332,0.68883006,-0.04466952,-0.14920384,0.065897085
333,0.69083003,-0.050167307,-0.1375974,0.075670935
334,0.69283003,-0.051389039,-0.13026701,0.081168719
335,0.69483003,-0.060552016,-0.10949759,0.08666651
336,0.69683006,-0.062384613,-0.088728175,0.091553427
337,0.69883096,-0.06421721,-0.08200866,0.088499099
338,0.70083186,-0.063606344,-0.065515295,0.084223047
339,0.70283189,-0.062995479,-0.053908858,0.076281801
340,0.70483153,-0.059941154,-0.05085453,0.07078401
341,0.70683156,-0.049556442,-0.049632803,0.051847186
342,0.70883156,-0.046502117,-0.051465396,0.04757113
343,0.71083153,-0.04100433,-0.057574049,0.039019018
344,0.71283149,-0.026954429,-0.06246097,0.027412578
345,0.71483146,-0.010461068,-0.080176063,0.014584408
346,0.71683169,0.007254025,-0.099112883,0.0035888334
347,0.71883079,0.017638734,-0.10888673,-0.004352415
348,0.72082989,0.038408153,-0.12904528,-0.011071933
349,0.72282899,0.046349399,-0.14065172,-0.013515393
350,0.72482812,0.061621033,-0.15897769,-0.019624045
351,0.72682816,0.076281801,-0.17424931,-0.022067508
352,0.72882819,0.083001316,-0.18035796,-0.022678372
353,0.73082822,0.089109965,-0.19135354,-0.024510968
354,0.73282826,0.094607756,-0.19501872,-0.026954429
355,0.73482829,0.092775159,-0.19929479,-0.023289237
356,0.73682832,0.092164293,-0.19074267,-0.024510968
357,0.73882926,0.089109965,-0.18768835,-0.025121834
358,0.74083016,0.085444778,-0.1797471,-0.023289237
359,0.74283102,0.075670935,-0.1656972,-0.01779145
360,0.74483189,0.06345363,-0.1498147,-0.014126259
361,0.74683189,0.046349399,-0.14309518,-0.010461068
362,0.74883175,0.042684209,-0.12843442,-0.0067958757
363,0.75083175,0.056123246,-0.090560772,-0.0031306844
364,0.75283175,0.034742963,-0.11927144,-0.0012980887
365,0.75483175,0.016417004,-0.088728175,0.0017562376
366,0.75683172,0.042073343,-0.048411071,0.0023671028
367,0.75883082,0.023747386,-0.072234817,0.0011453723
368,0.76082992,0.012751812,-0.066737026,-7.6358156e-05
369,0.76282902,0.036575556,-0.025198191,-0.00068722339
370,0.76482852,0.030466905,-0.03191771,-0.00068722339
371,0.76682758,0.018860465,-0.050243668,-0.0031306844
372,0.76882755,0.037797287,-0.018478673,-0.0037415496
373,0.77082755,0.036575556,-0.025198191,-0.0025198192
374,0.77282755,0.028634308,-0.042913284,-0.0031306844
375,0.77482758,0.04390594,-0.029474247,0.0005345071
376,0.77682762,0.039629884,-0.045356743,0.0041996986
377,0.77882852,0.042073343,-0.047800206,0.0054214289
378,0.78082942,0.051847186,-0.04718934,0.010919216
379,0.78283032,0.051236324,-0.052687127,0.014584408
380,0.78483122,0.053679783,-0.06246097,0.020082194
381,0.78683122,0.061010167,-0.06246097,0.023747386
382,0.78883078,0.062842764,-0.067958757,0.022525655
383,0.79083075,0.062842764,-0.074678279,0.026190847
384,0.79283072,0.067729682,-0.074067414,0.031688634
385,0.79483068,0.068951413,-0.076510869,0.031077769
386,0.79683065,0.06650795,-0.080176063,0.032910366
387,0.79882975,0.065286227,-0.082619525,0.035353824
388,0.80082971,0.06650795,-0.086895578,0.03596469
389,0.80282971,0.06345363,-0.088728175,0.035353824
390,0.80482975,0.064064495,-0.08933904,0.037797287
391,0.80682978,0.061010167,-0.091782503,0.037186421
392,0.80882994,0.061621033,-0.091782503,0.038408153
393,0.81082998,0.061621033,-0.085673854,0.038408153
394,0.81283001,0.057955839,-0.083841257,0.03596469
395,0.81483004,0.05551238,-0.077121735,0.035353824
396,0.81683008,0.050625458,-0.069791354,0.035353824
397,0.81883128,0.051236324,-0.064904429,0.034742963
398,0.82083214,0.045738537,-0.056352317,0.032910366
399,0.82283301,0.044516806,-0.050243668,0.028634308
400,0.82483388,0.036575556,-0.03924809,0.027412578
401,0.82683478,0.034132097,-0.033750303,0.026190847
402,0.82883478,0.030466905,-0.027030786,0.026190847
403,0.83083478,0.027412578,-0.019700404,0.029245174
404,0.83283478,0.024358252,-0.012370021,0.029856039
405,0.83483474,0.022525655,-0.0093156947,0.028634308
406,0.83683471,0.016417004,-0.0044287732,0.029856039
407,0.83883381,0.018860465,-0.0013744468,0.030466905
408,0.84083291,0.017027868,0.0016798794,0.030466905
409,0.84283287,0.017027868,0.0010690142,0.031688634
410,0.84483284,0.018860465,-0.00015271631,0.0322995
411,0.8468328,0.020082194,-0.0013744468,0.033521231
412,0.84883284,0.018860465,-0.0044287732,0.032910366
413,0.85083284,0.022525655,-0.0056505036,0.0322995
414,0.85283287,0.026190847,-0.0050396384,0.031688634
415,0.8548329,0.028023442,-0.013591751,0.028634308
416,0.85683294,0.031688634,-0.017256944,0.025579982
417,0.85883384,0.034742963,-0.022143865,0.027412578
418,0.86083387,0.03596469,-0.03191771,0.024358252
419,0.8628339,0.041462477,-0.042302419,0.018860465
420,0.8648339,0.046960264,-0.048411071,0.02069306
421,0.86683387,0.050014593,-0.06307184,0.017027868
422,0.86883384,0.053679783,-0.067347892,0.015806139
423,0.8708338,0.054901514,-0.07040222,0.016417004
424,0.87283287,0.058566704,-0.078343466,0.017638734
425,0.87483283,0.065897085,-0.085673854,0.012140946
426,0.8768328,0.07078401,-0.090560772,0.015195273
427,0.8788316,0.071394876,-0.090560772,0.017638734
428,0.88083073,0.075670935,-0.093004234,0.015806139
429,0.8828299,0.079336122,-0.094836831,0.015806139
430,0.88482906,0.085444778,-0.093004234,0.017638734
431,0.8868291,0.088499099,-0.096058562,0.018860465
432,0.88882913,0.090331696,-0.096669428,0.018249599
433,0.89082916,0.092775159,-0.091782503,0.021914791
434,0.8928292,0.08972083,-0.093004234,0.020082194
435,0.89482923,0.090942562,-0.0936151,0.017638734
436,0.89682926,0.086055644,-0.086284719,0.019471331
437,0.89883013,0.080557853,-0.080176063,0.017638734
438,0.90083099,0.076892659,-0.076510869,0.018860465
439,0.90283099,0.072005741,-0.068569623,0.017638734
440,0.90483099,0.064675361,-0.061239243,0.017027868
441,0.90683099,0.056123246,-0.058184914,0.015806139
442,0.90883136,0.052458052,-0.052076261,0.016417004
443,0.91083136,0.043295074,-0.045967609,0.017638734
444,0.91283133,0.040851612,-0.045356743,0.02069306
445,0.91483129,0.030466905,-0.034972034,0.023136521
446,0.91683126,0.023747386,-0.027641652,0.023136521
447,0.91883032,0.02069306,-0.020922136,0.021303926
448,0.92082942,0.013973542,-0.014813482,0.021914791
449,0.92282852,0.010919216,-0.0099265603,0.02069306
450,0.92482762,0.007254025,-0.0044287732,0.021303926
451,0.92682672,0.0048105638,-0.001985312,0.017638734
452,0.92882672,0.0048105638,-0.00076358154,0.017027868
453,0.93082676,0.0054214289,0.00045814895,0.016417004
454,0.93282769,0.0066431593,-0.0044287732,0.016417004
455,0.93482772,0.0078648897,-0.010537425,0.013973542
456,0.93682776,0.015195273,-0.016035212,0.014584408
457,0.93882836,0.017027868,-0.017256944,0.011530082
458,0.94082926,0.020082194,-0.025198191,0.0096974857
459,0.94283012,0.024358252,-0.028863383,0.010919216
460,0.94483099,0.027412578,-0.034972034,0.010919216
461,0.94683095,0.03596469,-0.041691553,0.010919216
462,0.94883092,0.037797287,-0.044745877,0.0090866201
463,0.95083089,0.037797287,-0.05085453,0.0084757553
464,0.95283085,0.041462477,-0.056963183,0.0078648897
465,0.95483082,0.04390594,-0.056352317,0.011530082
466,0.95683078,0.045127671,-0.060017511,0.010919216
467,0.95882992,0.046349399,-0.060628377,0.0096974857
468,0.96082908,0.045127671,-0.060017511,0.012751812
469,0.96282825,0.048181996,-0.056963183,0.011530082
470,0.96482742,0.046960264,-0.05879578,0.011530082
471,0.96682658,0.04757113,-0.052076261,0.013362677
472,0.96882661,0.045738537,-0.05085453,0.014584408
473,0.97082665,0.044516806,-0.05085453,0.015195273
474,0.97282668,0.043295074,-0.048411071,0.015195273
475,0.97482671,0.04024075,-0.047800206,0.014584408
476,0.97682645,0.03596469,-0.042913284,0.013973542
477,0.97882721,0.035353824,-0.041691553,0.017027868
478,0.98082808,0.034132097,-0.041080687,0.018249599
479,0.98282894,0.031688634,-0.0355829,0.021914791
480,0.98482981,0.031688634,-0.033139441,0.021914791
481,0.98683071,0.031688634,-0.028863383,0.021914791
482,0.98883071,0.030466905,-0.028252518,0.021914791
483,0.99083068,0.029856039,-0.028863383,0.021303926
484,0.99283064,0.028634308,-0.025809057,0.021303926
485,0.99483061,0.027412578,-0.025809057,0.02069306
486,0.99683057,0.027412578,-0.02397646,0.017027868
487,0.99882997,0.025579982,-0.022143865,0.018860465
488,1.0008299,0.026801713,-0.023365596,0.018249599
489,1.0028299,0.027412578,-0.022754731,0.017027868
490,1.0048299,0.028023442,-0.02397646,0.018249599
491,1.0068299,0.031077769,-0.022754731,0.015806139
492,1.0088299,0.034742963,-0.022143865,0.010308351
493,1.0108299,0.046349399,-0.010537425,0.0066431593
494,1.01283,0.052458052,-0.0050396384,0.0011453723
495,1.01483,0.067118816,-0.0068722339,-0.0037415496
496,1.01683,0.07811439,-0.021532999,-0.011071933
497,1.0188305,0.083612181,-0.030695979,-0.014126259
498,1.0208314,0.086055644,-0.05085453,-0.015958855
499,1.0228323,0.090942562,-0.06612616,-0.024510968
500,1.0248331,0.09399689,-0.073456548,-0.027565295
501,1.0268339,0.094607756,-0.085062988,-0.033673946
502,1.0288339,0.09399689,-0.096058562,-0.03733914
503,1.0308339,0.09399689,-0.099723749,-0.038560867
504,1.0328338,0.092164293,-0.10461067,-0.042836927
505,1.0348338,0.087888241,-0.107665,-0.043447789
506,1.0368341,0.08239045,-0.11071932,-0.043447789
507,1.0388334,0.081779584,-0.11377365,-0.045891251
508,1.0408325,0.076281801,-0.11377365,-0.041615196
509,1.0428326,0.074449204,-0.11010846,-0.039171733
510,1.0448326,0.068340547,-0.11010846,-0.03733914
511,1.0468326,0.061621033,-0.10949759,-0.031841353
512,1.048833,0.057344973,-0.10461067,-0.030619621
513,1.0508331,0.048792861,-0.099112883,-0.025732698
514,1.0528331,0.041462477,-0.091171637,-0.022067508
515,1.0548331,0.03596469,-0.086284719,-0.020845776
516,1.0568331,0.026801713,-0.078954332,-0.015347989
517,1.058834,0.019471331,-0.071623951,-0.010461068
518,1.060834,0.015195273,-0.069180489,-0.0067958757
519,1.062834,0.0054214289,-0.06307184,-0.0012980887
520,1.064834,-0.00068722339,-0.054519724,0.0048105638
521,1.066834,-0.010461068,-0.049632803,0.010919216
522,1.0688339,-0.015347989,-0.045356743,0.015195273
523,1.0708339,-0.021456642,-0.034361169,0.02069306
524,1.0728339,-0.023289237,-0.026419923,0.022525655
525,1.0748338,-0.027565295,-0.011148291,0.028023442
526,1.0768338,-0.030619621,0.0071776668,0.032910366
527,1.0788333,-0.030008756,0.016340645,0.03596469
528,1.0808324,-0.033673946,0.029168816,0.040851612
529,1.0828315,-0.03306308,0.034055736,0.044516806
530,1.0848306,-0.030008756,0.049938235,0.049403727
531,1.0868307,-0.032452215,0.06093381,0.058566704
532,1.0888307,-0.032452215,0.075594574,0.064064495
533,1.0908307,-0.03306308,0.079259768,0.071394876
534,1.0928308,-0.033673946,0.091477074,0.079336122
535,1.0948308,-0.03306308,0.094531395,0.084223047
536,1.0968308,-0.032452215,0.10980303,0.08972083
537,1.0988317,-0.03306308,0.11163563,0.09399689
538,1.1008326,-0.030008756,0.11652254,0.093386024
539,1.1028325,-0.030008756,0.11957687,0.095218621
540,1.1048325,-0.026343564,0.12568553,0.092164293
541,1.1068325,-0.021456642,0.12568553,0.087277375
542,1.1088321,-0.017180584,0.12324207,0.08239045
543,1.110832,-0.012293663,0.12751812,0.07506007
544,1.112832,-0.010461068,0.12935072,0.07078401
545,1.114832,-0.0037415496,0.12507465,0.060399301
546,1.116832,0.0066431593,0.13057245,0.048181996
547,1.1188311,0.010919216,0.13179417,0.044516806
548,1.1208303,0.018249599,0.14156802,0.034132097
549,1.1228294,0.029245174,0.15012014,0.028023442
550,1.1248285,0.035353824,0.14950927,0.022525655
551,1.1268285,0.05917757,0.19043724,0.012140946
552,1.1288281,0.078725256,0.24480425,0.0078648897
553,1.1308281,0.102549,0.2948952,0.002977968
554,1.1328282,0.13492486,0.33521229,-0.0055741454
555,1.1348282,0.14958562,0.31749722,-0.010461068
556,1.1368282,0.15263996,0.29122999,-0.013515393
557,1.1388291,0.15447254,0.28328875,-0.015958855
558,1.14083,0.14775303,0.28267789,-0.021456642
559,1.1428309,0.14897476,0.28512135,-0.026343564
560,1.1448318,0.14530957,0.28451049,-0.035506543
561,1.1468318,0.14164437,0.26007587,-0.042226061
562,1.1488318,0.14103352,0.24419338,-0.045891251
563,1.1508317,0.13614659,0.20693061,-0.047112983
564,1.1528317,0.1324814,0.1769982,-0.047723848
565,1.1548317,0.13003793,0.16783522,-0.047723848
566,1.1568316,0.12820534,0.14217889,-0.039782599
567,1.1588307,0.12759447,0.11896601,-0.031841353
568,1.1608298,0.12698361,0.10552697,-0.030619621
569,1.162829,0.12637275,0.091477074,-0.022067508
570,1.1648281,0.12515102,0.068875059,-0.020234911
571,1.1668273,0.12087496,0.053603426,-0.014126259
572,1.1688273,0.12209669,0.043829583,-0.013515393
573,1.1708274,0.11782064,0.02977968,-0.010461068
574,1.1728274,0.11598804,0.026725354,-0.0092393365
575,1.1748274,0.11476631,0.016340645,-0.0086284718
576,1.1768275,0.11110111,0.010842858,-0.010461068
577,1.1788284,0.11293371,0.0053450707,-0.010461068
578,1.1808292,0.10926852,-0.0044287732,-0.0098502021
579,1.1828301,0.1062142,-0.016035212,-0.012904529
580,1.1848307,0.1043816,-0.02031127,-0.014126259
581,1.1868307,0.098272949,-0.029474247,-0.016569721
582,1.1925388,0.091553427,-0.03924809,-0.017180584
583,1.1945388,0.087277375,-0.046578474,-0.021456642
584,1.1965388,0.080557853,-0.058184914,-0.021456642
585,1.1985388,0.068951413,-0.064904429,-0.020845776
586,1.2005387,0.05917757,-0.072845683,-0.021456642
587,1.2025378,0.053068917,-0.076510869,-0.023289237
588,1.2045378,0.040851612,-0.084452122,-0.018402316
589,1.2065378,0.037797287,-0.085062988,-0.021456642
590,1.2085377,0.025579982,-0.084452122,-0.015347989
591,1.2105377,0.015806139,-0.084452122,-0.011682798
592,1.2125377,0.012751812,-0.081397794,-0.011071933
593,1.2145377,0.0060322941,-0.074678279,-0.0049632802
594,1.2165378,-0.0019089539,-0.071013086,0.0023671028
595,1.2185378,-0.0067958757,-0.068569623,0.0048105638
596,1.2205378,-0.012904529,-0.064293563,0.0060322941
597,1.2225387,-0.021456642,-0.065515295,0.011530082
598,1.2245393,-0.025121834,-0.064904429,0.012140946
599,1.2265402,-0.031841353,-0.067347892,0.014584408
600,1.228541,-0.035506543,-0.064904429,0.015195273
601,1.2305419,-0.04100433,-0.071013086,0.021303926
602,1.2325418,-0.042226061,-0.072234817,0.022525655
603,1.2345415,-0.042836927,-0.079565197,0.025579982
604,1.2365415,-0.04466952,-0.083841257,0.029245174
605,1.2385415,-0.041615196,-0.091782503,0.032910366
606,1.2405414,-0.041615196,-0.098502018,0.035353824
607,1.2425405,-0.03733914,-0.10277808,0.036575556
608,1.2445397,-0.034284811,-0.11194105,0.037186421
609,1.2465397,-0.03306308,-0.11377365,0.036575556
610,1.24854,-0.028787024,-0.1217149,0.03596469
611,1.2505401,-0.026343564,-0.13026701,0.037797287
612,1.2525399,-0.022678372,-0.13148874,0.037797287
613,1.2545399,-0.021456642,-0.14126259,0.040851612
614,1.2565399,-0.018402316,-0.14492778,0.039629884
615,1.25854,-0.016569721,-0.14676037,0.040851612
616,1.26054,-0.019624045,-0.14553864,0.04757113
617,1.2625409,-0.017180584,-0.14431691,0.04757113
618,1.2645409,-0.019013181,-0.14248432,0.048181996
619,1.2665409,-0.020234911,-0.1375974,0.054290649
620,1.2685409,-0.020234911,-0.12965615,0.057955839
621,1.2705409,-0.025121834,-0.11927144,0.057955839
622,1.2725409,-0.027565295,-0.11743885,0.057955839
623,1.2745408,-0.031841353,-0.10461067,0.058566704
624,1.2765408,-0.036728274,-0.097280294,0.05917757
625,1.2785408,-0.04100433,-0.083841257,0.054290649
626,1.2805407,-0.038560867,-0.073456548,0.04757113
627,1.2825398,-0.038560867,-0.067958757,0.04390594
628,1.2845393,-0.034284811,-0.060017511,0.033521231
629,1.2865384,-0.028787024,-0.054519724,0.025579982
630,1.2885375,-0.023289237,-0.052076261,0.019471331
631,1.2905375,-0.012904529,-0.052076261,0.011530082
632,1.2925375,0.0011453723,-0.053908858,0.0023671028
633,1.2945378,0.0066431593,-0.053908858,-0.00068722339
634,1.2965379,0.020082194,-0.057574049,-0.0086284718
635,1.2985379,0.031077769,-0.060017511,-0.018402316
636,1.3005379,0.041462477,-0.067347892,-0.026343564
637,1.3025388,0.045127671,-0.06612616,-0.031230485
638,1.3045397,0.050625458,-0.072234817,-0.03733914
639,1.3065397,0.051847186,-0.074678279,-0.040393464
640,1.3085393,0.052458052,-0.073456548,-0.045891251
641,1.3105393,0.046349399,-0.072845683,-0.049556442
642,1.3125392,0.051236324,-0.057574049,-0.048334714
643,1.3145392,0.057955839,-0.052076261,-0.048945576
644,1.3165392,0.028634308,-0.067347892,-0.050778173
645,1.3185391,0.056123246,-0.019700404,-0.050778173
646,1.3205391,0.042684209,-0.026419923,-0.042226061
647,1.3225382,0.018860465,-0.038026363,-0.042226061
648,1.3245374,0.029856039,-0.00870483,-0.042226061
649,1.3265366,0.037186421,0.012064588,-0.035506543
650,1.3285357,0.021914791,-0.0025961774,-0.03306308
651,1.3305358,0.029856039,0.033444874,-0.031230485
652,1.3325358,0.031077769,0.038331795,-0.02939789
653,1.3345358,0.017027868,0.030390546,-0.031841353
654,1.3365359,0.021914791,0.038331795,-0.03306308
655,1.3385359,0.030466905,0.058490347,-0.034284811
656,1.3405359,0.024969118,0.054825157,-0.039171733
657,1.3425372,0.026190847,0.062766403,-0.038560867
658,1.3445381,0.0322995,0.076816306,-0.042836927
659,1.346539,0.027412578,0.074372843,-0.048945576
660,1.3485398,0.029245174,0.080481499,-0.048334714
661,1.3505398,0.032910366,0.085979283,-0.053221636
662,1.3525394,0.029856039,0.082924955,-0.056886826
663,1.3545394,0.031688634,0.08353582,-0.057497691
664,1.3565393,0.035353824,0.090255342,-0.059330288
665,1.3585393,0.029856039,0.082314089,-0.061773747
666,1.3605393,0.031688634,0.084757552,-0.061162882
667,1.3625384,0.034132097,0.081703223,-0.061773747
668,1.3645375,0.029856039,0.078038037,-0.061162882
669,1.3665366,0.028634308,0.073151112,-0.061162882
670,1.3685361,0.027412578,0.068264194,-0.062384613
671,1.3705353,0.024358252,0.06093381,-0.059941154
672,1.372535,0.024358252,0.057268616,-0.058108557
673,1.374535,0.018249599,0.053603426,-0.057497691
674,1.3765351,0.018860465,0.050549097,-0.053832501
675,1.3785351,0.010919216,0.048105638,-0.054443367
676,1.3805351,0.0054214289,0.041996986,-0.050778173
677,1.3825366,0.0023671028,0.043218717,-0.05261077
678,1.3845375,-0.00068722339,0.03772093,-0.048334714
679,1.3865383,-0.0055741454,0.040164389,-0.04466952
680,1.3885391,-0.0092393365,0.038942661,-0.04466952
681,1.3905391,-0.014126259,0.045662176,-0.039171733
682,1.3925391,-0.015958855,0.04505131,-0.036117408
683,1.394539,-0.017180584,0.04505131,-0.03733914
684,1.396539,-0.019013181,0.051159963,-0.032452215
685,1.398539,-0.019624045,0.047494773,-0.031230485
686,1.400539,-0.016569721,0.048105638,-0.025732698
687,1.4025376,-0.015347989,0.043218717,-0.026343564
688,1.404538,-0.012293663,0.038331795,-0.022067508
689,1.406538,-0.010461068,0.03772093,-0.022067508
690,1.408538,-0.0049632802,0.026725354,-0.019013181
691,1.4105381,0.0005345071,0.019394971,-0.015958855
692,1.412538,0.0060322941,0.015729779,-0.012904529
693,1.4145381,0.012140946,0.0071776668,-0.0098502021
694,1.4165381,0.021303926,-0.0032070426,-0.0055741454
695,1.4185381,0.028023442,-0.0050396384,-0.0037415496
696,1.4205381,0.038408153,-0.012370021,-0.0012980887
697,1.422539,0.045738537,-0.019089539,0.002977968
698,1.4245396,0.050625458,-0.025809057,0.0023671028
699,1.4265405,0.057344973,-0.034361169,0.0041996986
700,1.4285414,0.061621033,-0.037415497,0.0035888334
701,1.4305422,0.070173144,-0.04352415,0.0011453723
702,1.4325425,0.070173144,-0.045967609,0.0005345071
703,1.4345424,0.070173144,-0.04718934,-0.0012980887
704,1.4365424,0.071394876,-0.049632803,-0.0025198192
705,1.4385424,0.069562279,-0.048411071,-0.004352415
706,1.4405423,0.06650795,-0.048411071,-0.0074067409
707,1.4425409,0.067118816,-0.045967609,-0.0061850105
708,1.44454,0.062842764,-0.044745877,-0.0086284718
709,1.44654,0.05917757,-0.044135015,-0.0092393365
710,1.44854,0.056734111,-0.042302419,-0.0086284718
711,1.45054,0.051236324,-0.041691553,-0.0086284718
712,1.45254,0.048792861,-0.038026363,-0.0067958757
713,1.4545401,0.04757113,-0.03924809,-0.0061850105
714,1.4565401,0.045738537,-0.036804631,-0.0049632802
715,1.4585401,0.043295074,-0.034361169,-0.0049632802
716,1.4605402,0.045127671,-0.028863383,-0.0019089539
717,1.4625411,0.044516806,-0.031306844,-0.0025198192
718,1.4645407,0.039019018,-0.023365596,-0.0019089539
719,1.4665407,0.037186421,-0.019089539,-0.0031306844
720,1.4685407,0.03596469,-0.012980887,-0.0037415496
721,1.4705406,0.032910366,-0.0044287732,0.0011453723
722,1.472541,0.0322995,-0.001985312,-0.0019089539
723,1.474541,0.027412578,0.0047342055,-7.6358156e-05
724,1.476541,0.023747386,0.01450805,0.002977968
725,1.478541,0.02069306,0.018784106,0.002977968
726,1.480541,0.021303926,0.027336219,0.0048105638
727,1.4825402,0.018860465,0.030390546,0.0060322941
728,1.4845395,0.015195273,0.035888333,0.0084757553
729,1.4865387,0.015195273,0.041996986,0.011530082
730,1.4885379,0.013362677,0.044440448,0.0090866201
731,1.4905379,0.010919216,0.053603426,0.013973542
732,1.492538,0.012140946,0.055436023,0.014584408
733,1.494538,0.011530082,0.059712078,0.012751812
734,1.496538,0.0090866201,0.059101213,0.013362677
735,1.498538,0.0090866201,0.059101213,0.018860465
736,1.500538,0.0090866201,0.063377269,0.018860465
737,1.5025389,0.0078648897,0.059712078,0.021303926
738,1.5045397,0.007254025,0.059712078,0.022525655
739,1.5065397,0.0066431593,0.05665775,0.02069306
740,1.5085397,0.0090866201,0.054825157,0.025579982
741,1.5105397,0.0084757553,0.051770829,0.023136521
742,1.5125398,0.0090866201,0.049938235,0.022525655
743,1.5145398,0.0096974857,0.046883907,0.023136521
744,1.5165398,0.012751812,0.041996986,0.024358252
745,1.5185397,0.012140946,0.040164389,0.021914791
746,1.5205397,0.012140946,0.027947085,0.026190847
747,1.5225389,0.011530082,0.02611449,0.028023442
748,1.524538,0.012140946,0.019394971,0.026190847
749,1.5265372,0.013362677,0.013286319,0.026190847
750,1.5285363,0.013973542,0.0065668016,0.025579982
751,1.5305364,0.018249599,-0.0013744468,0.024969118
752,1.5325364,0.018249599,-0.0056505036,0.024358252
753,1.5345364,0.022525655,-0.0099265603,0.023136521
754,1.5365365,0.022525655,-0.011759156,0.024969118
755,1.5385365,0.027412578,-0.017867809,0.024969118
756,1.5405365,0.029856039,-0.022143865,0.025579982
757,1.5425373,0.029856039,-0.022143865,0.024969118
758,1.5445382,0.031688634,-0.025809057,0.025579982
759,1.546539,0.034132097,-0.028252518,0.026801713
760,1.5485398,0.034132097,-0.027641652,0.027412578
761,1.5505398,0.035353824,-0.027641652,0.026801713
762,1.5525397,0.034742963,-0.029474247,0.027412578
763,1.5545408,0.034132097,-0.033750303,0.028634308
764,1.5565408,0.033521231,-0.034972034,0.030466905
765,1.5585409,0.033521231,-0.036193766,0.029245174
766,1.5605409,0.0322995,-0.03924809,0.026801713
767,1.5625401,0.029245174,-0.039858956,0.028023442
768,1.5645392,0.028634308,-0.038637228,0.026190847
769,1.5665384,0.029245174,-0.042913284,0.024969118
770,1.5685376,0.026190847,-0.040469822,0.02069306
771,1.5705367,0.023747386,-0.042913284,0.018249599
772,1.5725366,0.021303926,-0.040469822,0.018860465
773,1.5745366,0.018860465,-0.039858956,0.013973542
774,1.5765366,0.013362677,-0.03924809,0.012751812
775,1.5785366,0.014584408,-0.037415497,0.011530082
776,1.5805366,0.0078648897,-0.034361169,0.0090866201
777,1.5825373,0.0066431593,-0.033750303,0.007254025
778,1.5845382,0.0060322941,-0.03191771,0.0060322941
779,1.5865391,0.0041996986,-0.032528576,0.002977968
780,1.5885399,0.002977968,-0.030085113,0.002977968
781,1.5905399,0.0023671028,-0.027641652,0.0017562376
782,1.5925398,0.0005345071,-0.028252518,0.0005345071
783,1.5945398,0.0005345071,-0.028252518,-0.0025198192
784,1.5965398,0.0017562376,-0.030085113,-0.004352415
785,1.5985397,0.002977968,-0.030085113,-0.0055741454
786,1.6005397,0.0017562376,-0.033750303,-0.0086284718
787,1.6025388,0.0023671028,-0.036193766,-0.010461068
788,1.6045388,0.0048105638,-0.041080687,-0.010461068
789,1.6065389,0.002977968,-0.04718934,-0.014126259
790,1.6085389,0.0041996986,-0.047800206,-0.014737124
791,1.6105389,0.007254025,-0.05513059,-0.017180584
792,1.612539,0.0090866201,-0.06246097,-0.018402316
793,1.6145379,0.0066431593,-0.064904429,-0.019013181
794,1.6165379,0.010919216,-0.068569623,-0.022067508
795,1.6185379,0.012140946,-0.079565197,-0.020234911
796,1.6205379,0.014584408,-0.08200866,-0.019624045
797,1.6225387,0.015806139,-0.086895578,-0.021456642
798,1.6245395,0.017638734,-0.092393368,-0.019013181
799,1.6265404,0.020082194,-0.096058562,-0.018402316
800,1.6285412,0.021303926,-0.10277808,-0.017180584
801,1.630542,0.026190847,-0.10644327,-0.016569721
802,1.6325416,0.027412578,-0.10949759,-0.016569721
803,1.6345416,0.029245174,-0.11499538,-0.014737124
804,1.6365416,0.034742963,-0.12232576,-0.012904529
805,1.6385416,0.037797287,-0.12293663,-0.014737124
806,1.6405416,0.039629884,-0.12904528,-0.013515393
807,1.6425407,0.042073343,-0.13026701,-0.015347989
808,1.6445399,0.040851612,-0.13454308,-0.014126259
809,1.6465399,0.042684209,-0.13698652,-0.013515393
810,1.6485399,0.046960264,-0.13942999,-0.014737124
811,1.6505399,0.045127671,-0.14004086,-0.012293663
812,1.6525399,0.045127671,-0.14187345,-0.012904529
813,1.6545399,0.046960264,-0.14248432,-0.013515393
814,1.65654,0.049403727,-0.14431691,-0.012293663
815,1.65854,0.048792861,-0.14737125,-0.012904529
816,1.66054,0.048181996,-0.14492778,-0.015347989
817,1.6625409,0.048792861,-0.14492778,-0.015958855
818,1.664541,0.049403727,-0.14065172,-0.014737124
819,1.666541,0.050625458,-0.14065172,-0.015958855
820,1.6685409,0.04757113,-0.14004086,-0.012904529
821,1.6705409,0.046960264,-0.1339322,-0.012904529
822,1.6725409,0.04757113,-0.13576481,-0.016569721
823,1.6745408,0.043295074,-0.12904528,-0.014737124
824,1.6765408,0.039629884,-0.12721269,-0.016569721
825,1.6785408,0.038408153,-0.12293663,-0.014126259
826,1.6805408,0.034132097,-0.11621711,-0.012293663
827,1.6825399,0.031688634,-0.11560625,-0.014737124
828,1.6845391,0.031688634,-0.11438452,-0.017180584
829,1.6865382,0.026190847,-0.10949759,-0.014126259
830,1.6885374,0.024969118,-0.10338894,-0.012293663
831,1.6905374,0.024358252,-0.10155635,-0.011071933
832,1.6925375,0.023747386,-0.099723749,-0.0086284718
833,1.6945375,0.022525655,-0.096058562,-0.0098502021
834,1.6965375,0.024358252,-0.098502018,-0.0074067409
835,1.6985376,0.027412578,-0.097280294,-0.0067958757
836,1.7005376,0.027412578,-0.096058562,-0.0049632802
837,1.7025384,0.029856039,-0.098502018,-0.0074067409
838,1.7045393,0.031688634,-0.099723749,-0.0055741454
839,1.7065393,0.034132097,-0.10277808,-0.0067958757
840,1.7085393,0.037186421,-0.10461067,-0.0049632802
841,1.7105393,0.038408153,-0.10888673,-0.0067958757
842,1.7125393,0.040851612,-0.11316279,-0.0049632802
843,1.7145392,0.042073343,-0.11743885,-0.0049632802
844,1.7165392,0.042684209,-0.11927144,-0.0061850105
845,1.7185392,0.044516806,-0.12782355,-0.0067958757
846,1.7205391,0.04757113,-0.1339322,-0.0067958757
847,1.7225382,0.046960264,-0.13515393,-0.004352415
848,1.7245373,0.045738537,-0.14309518,-0.0012980887
849,1.7265364,0.048792861,-0.14798211,-0.0025198192
850,1.7285356,0.050625458,-0.15409076,-7.6358156e-05
851,1.7305356,0.050625458,-0.15958855,0.0005345071
852,1.7325356,0.052458052,-0.1638646,-0.00068722339
853,1.7345357,0.053679783,-0.17058411,0.0023671028
854,1.7365357,0.054290649,-0.17547104,0.0035888334
855,1.7385357,0.054901514,-0.1779145,0.0066431593
856,1.7405354,0.056734111,-0.18463401,0.0084757553
857,1.7425363,0.057344973,-0.19379699,0.010919216
858,1.7445372,0.060399301,-0.19624045,0.012751812
859,1.746538,0.064675361,-0.19868392,0.016417004
860,1.7485388,0.068951413,-0.20906863,0.018860465
861,1.7505388,0.072616607,-0.22128594,0.021303926
862,1.7525395,0.075670935,-0.22922719,0.021914791
863,1.7545395,0.079946987,-0.24083363,0.025579982
864,1.7565394,0.087277375,-0.25121832,0.026190847
865,1.7585394,0.092775159,-0.26404649,0.028634308
866,1.7605394,0.10377073,-0.27992901,0.031077769
867,1.7625386,0.10804679,-0.28359419,0.033521231
868,1.7645378,0.12148582,-0.29825497,0.034742963
869,1.766537,0.1288162,-0.30863968,0.03596469
870,1.7685361,0.14103352,-0.32391131,0.040851612
871,1.7705353,0.15630515,-0.3379612,0.043295074
872,1.7725353,0.16302466,-0.34956762,0.046960264
873,1.7745353,0.18379408,-0.36483926,0.053068917
874,1.7765353,0.20150918,-0.38072178,0.056734111
875,1.7785353,0.21189389,-0.3904956,0.062231898
876,1.7805353,0.24365887,-0.41798455,0.070173144
877,1.7825362,0.25282186,-0.42653665,0.071394876
878,1.7845371,0.26870435,-0.4344779,0.07506007
879,1.7865379,0.29069549,-0.44669521,0.080557853
880,1.7885388,0.31085405,-0.4558582,0.086055644
881,1.7905388,0.33162346,-0.46379945,0.087277375
882,1.7925384,0.33956471,-0.46379945,0.087888241
883,1.7945383,0.35361463,-0.46318856,0.089109965
884,1.7965383,0.36033413,-0.46441031,0.087888241
885,1.7985383,0.37255144,-0.4558582,0.08239045
886,1.8005386,0.37621662,-0.44974953,0.076281801
887,1.8025377,0.37804922,-0.44669521,0.070173144
888,1.8045377,0.37866008,-0.43569964,0.062231898
889,1.8065377,0.37621662,-0.42592579,0.053068917
890,1.8085377,0.37194058,-0.41920626,0.048181996
891,1.8105377,0.35972327,-0.40637809,0.037186421
892,1.8125374,0.35361463,-0.40149119,0.032910366
893,1.8145374,0.3468951,-0.40149119,0.031077769
894,1.8165375,0.33589953,-0.39782599,0.026801713
895,1.8185375,0.32307136,-0.39782599,0.021914791
896,1.8205375,0.30596712,-0.39477167,0.020082194
897,1.8225383,0.3010802,-0.39660427,0.02069306
898,1.8245392,0.28641945,-0.39660427,0.018860465
899,1.82654,0.27969992,-0.39782599,0.021303926
900,1.8285408,0.26931521,-0.40698898,0.018860465
901,1.8305417,0.25526533,-0.40943244,0.015806139
902,1.8325416,0.25098926,-0.4118759,0.015806139
903,1.8345417,0.24304801,-0.41370848,0.013973542
904,1.8365416,0.23449589,-0.41065416,0.013362677
905,1.8385416,0.23205243,-0.4100433,0.012751812
906,1.8405417,0.22655465,-0.40759984,0.010919216
907,1.8425408,0.22411118,-0.40332377,0.0084757553
908,1.84454,0.2186134,-0.40026945,0.0084757553
909,1.84654,0.21800253,-0.39660427,0.0084757553
910,1.8485401,0.21739167,-0.39110649,0.0084757553
911,1.8505401,0.21555908,-0.38621956,0.010308351
912,1.8525405,0.21494821,-0.38133264,0.012140946
913,1.8545405,0.2167808,-0.37583485,0.013973542
914,1.8565405,0.21800253,-0.37094793,0.012140946
915,1.8585405,0.21494821,-0.36300668,0.016417004
916,1.8605405,0.21372648,-0.35934147,0.021303926
917,1.8625414,0.21616994,-0.35873061,0.020082194
918,1.8645414,0.21433735,-0.35567629,0.025579982
919,1.8665414,0.21555908,-0.35140023,0.031077769
920,1.8685414,0.2167808,-0.35078937,0.032910366
921,1.8705413,0.22105686,-0.34712419,0.038408153
922,1.8725413,0.2186134,-0.34529158,0.043295074
923,1.8745412,0.2167808,-0.34712419,0.04757113
924,1.8765421,0.22044599,-0.34773505,0.054901514
925,1.878542,0.22288945,-0.34345898,0.065897085
926,1.880542,0.21983513,-0.34468073,0.073227473
927,1.8825412,0.22227859,-0.34162638,0.075670935
928,1.8845403,0.21983513,-0.34223726,0.08239045
929,1.8865395,0.21983513,-0.34529158,0.092775159
930,1.8885386,0.21800253,-0.34712419,0.102549
931,1.8905387,0.21922426,-0.34895676,0.10804679
932,1.8925387,0.2186134,-0.34956762,0.11598804
933,1.8945387,0.21739167,-0.35445455,0.1184315
934,1.8965388,0.2186134,-0.35323283,0.12209669
935,1.8985388,0.21983513,-0.36056322,0.12515102
936,1.9005388,0.22044599,-0.36545014,0.12942708
937,1.9025396,0.22166772,-0.36789361,0.12942708
938,1.9045405,0.22411118,-0.37766743,0.13003793
939,1.9065404,0.22350033,-0.38499781,0.12942708
940,1.9085404,0.22166772,-0.39293906,0.12698361
941,1.9105404,0.22105686,-0.41431937,0.12331842
942,1.9125399,0.21983513,-0.42164972,0.12209669
943,1.9145399,0.2186134,-0.42898011,0.1202641
944,1.9165399,0.21555908,-0.44180828,0.11354458
945,1.9185399,0.21616994,-0.44913867,0.10865766
946,1.92054,0.21555908,-0.45341474,0.099494673
947,1.9225391,0.21555908,-0.45158213,0.094607756
948,1.9245383,0.21006128,-0.45524731,0.08666651
949,1.9265375,0.21006128,-0.4558582,0.081168719
950,1.9285366,0.20212004,-0.4540256,0.07506007
951,1.9305365,0.19356793,-0.44974953,0.067729682
952,1.9325365,0.18929186,-0.4448626,0.06650795
953,1.9345365,0.17768542,-0.43386704,0.064675361
954,1.9365356,0.16668986,-0.41920626,0.064675361
955,1.9385356,0.16241379,-0.41248676,0.062842764
956,1.9405356,0.14530957,-0.38683042,0.068340547
957,1.9425364,0.13736832,-0.37522396,0.070173144
958,1.9445373,0.13370313,-0.36850446,0.070173144
959,1.9465381,0.12087496,-0.34712419,0.072616607
960,1.948539,0.11232284,-0.32330042,0.076281801
961,1.9505389,0.10315987,-0.30130929,0.081168719
962,1.9525386,0.10010554,-0.28909197,0.083001316
963,1.9545386,0.092164293,-0.26893342,0.083612181
964,1.9565385,0.088499099,-0.25305092,0.087888241
965,1.9585385,0.083001316,-0.23472497,0.092164293
966,1.9605385,0.081779584,-0.21334469,0.095829487
967,1.9625376,0.08239045,-0.19990565,0.098883815
968,1.9645368,0.084223047,-0.18341228,0.10560333
969,1.9665359,0.08666651,-0.16142114,0.11232284
970,1.9685351,0.09399689,-0.15592335,0.11476631
971,1.9705343,0.10377073,-0.13515393,0.12331842
972,1.9725347,0.11598804,-0.11927144,0.1288162
973,1.9745351,0.12637275,-0.11866058,0.13370313
974,1.9765352,0.1483639,-0.11316279,0.14592044
975,1.9785352,0.1746311,-0.11438452,0.15691601
976,1.9805351,0.20334177,-0.11927144,0.17218764
977,1.982536,0.21922426,-0.12415836,0.18379408
978,1.9845368,0.25282186,-0.13576481,0.20212004
979,1.9865376,0.27114782,-0.14126259,0.21067216
980,1.9885385,0.30963233,-0.16691893,0.22227859
981,1.9905386,0.34506249,-0.18768835,0.23510677
982,1.9925382,0.36827537,-0.20723604,0.24060455
983,1.9945382,0.40492731,-0.24205536,0.24915667
984,1.9965383,0.44280094,-0.27687466,0.2503784
985,1.9985383,0.46173778,-0.29947668,0.24976753
986,2.0005383,0.4977788,-0.34162638,0.24243714
987,2.0025375,0.51366132,-0.36117408,0.23999368
988,2.0045367,0.5435937,-0.40515637,0.22716552
989,2.0065367,0.56925005,-0.44608435,0.21189389
990,2.0085367,0.58879775,-0.48456886,0.19417879
991,2.0105368,0.60651284,-0.51633388,0.17646369
992,2.0125371,0.6162867,-0.52671856,0.16852245
993,2.0145371,0.63705611,-0.54565537,0.15813774
994,2.0165371,0.64377558,-0.5523749,0.15141822
995,2.0185371,0.65843636,-0.56153786,0.14164437
996,2.0205371,0.66515589,-0.56886828,0.13492486
997,2.0225379,0.66759938,-0.57131171,0.13309227
998,2.0245388,0.66698849,-0.57131171,0.12637275
999,2.0265396,0.66026896,-0.57314432,0.11720977
1000,2.0285404,0.65416032,-0.57009,0.11598804
1001,2.0305413,0.64255387,-0.56886828,0.11415544
1002,2.0325412,0.63400179,-0.56947911,0.10865766
1003,2.0345408,0.61262149,-0.5676465,0.1043816
1004,2.0365408,0.59124118,-0.56703568,0.097662084
1005,2.0385407,0.58024561,-0.56520307,0.097051218
1006,2.0405407,0.5435937,-0.56153786,0.089109965
1007,2.0425399,0.53381985,-0.55604011,0.083612181
1008,2.044539,0.52160257,-0.55604011,0.08239045
1009,2.0465391,0.49716794,-0.55176401,0.073838338
1010,2.0485391,0.47578767,-0.54932058,0.068951413
1011,2.0505391,0.45623997,-0.53832501,0.062842764
1012,2.0525393,0.44585526,-0.52916199,0.060399301
1013,2.0545393,0.42814019,-0.51389039,0.057344973
1014,2.0565393,0.41836634,-0.50289482,0.057344973
1015,2.0585393,0.39881864,-0.48517972,0.054290649
1016,2.0605392,0.37866008,-0.46746463,0.057344973
1017,2.0625401,0.36888626,-0.46013424,0.056734111
1018,2.0645409,0.34994942,-0.44241914,0.057344973
1019,2.0665409,0.32979086,-0.4277584,0.061010167
1020,2.0685408,0.32001704,-0.41493022,0.06345363
1021,2.0705408,0.28886291,-0.3923282,0.06345363
1022,2.0725408,0.28092167,-0.38621956,0.064675361
1023,2.0745408,0.27114782,-0.37827832,0.065897085
1024,2.0765409,0.2503784,-0.36361754,0.06650795
1025,2.0785409,0.23449589,-0.35384369,0.064675361
1026,2.0805409,0.21922426,-0.34284812,0.067118816
1027,2.0825401,0.21006128,-0.33673948,0.065286227
1028,2.0845393,0.20273091,-0.32940909,0.06345363
1029,2.0865384,0.19601138,-0.32757649,0.060399301
1030,2.0885376,0.19112447,-0.32146785,0.056734111
1031,2.0905376,0.18073976,-0.31963524,0.053679783
1032,2.0925376,0.18073976,-0.31963524,0.052458052
1033,2.0945376,0.18135062,-0.32452217,0.045127671
1034,2.0965376,0.18318321,-0.33185256,0.043295074
1035,2.0985376,0.18440494,-0.33490688,0.045127671
1036,2.1005376,0.18990274,-0.34773505,0.043295074
1037,2.1025384,0.19967657,-0.36178493,0.04024075
1038,2.1045393,0.20395264,-0.37033707,0.04390594
1039,2.1065392,0.2167808,-0.38621956,0.045738537
1040,2.1085392,0.23205243,-0.40454552,0.046960264
1041,2.1105392,0.2503784,-0.42898011,0.050014593
1042,2.1125391,0.2570979,-0.43997568,0.053068917
1043,2.114539,0.2766456,-0.46074513,0.050625458
1044,2.116539,0.28519771,-0.46868637,0.05551238
1045,2.118539,0.30535626,-0.49006665,0.057955839
1046,2.120539,0.32368222,-0.50289482,0.062231898
1047,2.1225382,0.33040175,-0.51144695,0.064064495
1048,2.1245374,0.3487277,-0.52183163,0.067729682
1049,2.1265365,0.36522105,-0.5346598,0.069562279
1050,2.1285357,0.37255144,-0.53893584,0.07078401
1051,2.1305357,0.38354701,-0.54382277,0.07078401
1052,2.1325358,0.39148825,-0.54015762,0.072005741
1053,2.1345358,0.39637518,-0.53832501,0.072616607
1054,2.1365357,0.3994295,-0.53527069,0.069562279
1055,2.1385357,0.39759693,-0.51877731,0.073227473
1056,2.1405357,0.3945426,-0.50289482,0.072005741
1057,2.1425365,0.38843393,-0.49739704,0.073227473
1058,2.1445373,0.37927097,-0.48395798,0.072005741
1059,2.1465382,0.37438405,-0.47479501,0.073838338
1060,2.148539,0.35361463,-0.45830166,0.074449204
1061,2.150539,0.33895385,-0.44180828,0.073227473
1062,2.1525386,0.32979086,-0.43203443,0.072616607
1063,2.1545387,0.31268665,-0.41615194,0.073838338
1064,2.1565387,0.29558241,-0.39416081,0.071394876
1065,2.1585383,0.28580856,-0.37827832,0.076892659
1066,2.1605384,0.27175868,-0.35262197,0.076892659
1067,2.1625375,0.26503915,-0.34345898,0.076892659
1068,2.1645367,0.24793494,-0.31780264,0.079946987
1069,2.1665359,0.23449589,-0.29458976,0.08239045
1070,2.168535,0.2326633,-0.28298333,0.083612181
1071,2.1705341,0.21433735,-0.25060746,0.084223047
1072,2.1725345,0.21006128,-0.24327709,0.086055644
1073,2.1745345,0.20578523,-0.23533584,0.087277375
1074,2.1765345,0.2008983,-0.23105977,0.08666651
1075,2.1785345,0.19967657,-0.2218968,0.087277375
1076,2.1805344,0.19601138,-0.21762075,0.089109965
1077,2.1825353,0.19845484,-0.2182316,0.08666651
1078,2.1845361,0.19723311,-0.21945333,0.084833913
1079,2.1865369,0.19845484,-0.22311853,0.083001316
1080,2.1885378,0.20334177,-0.23105977,0.083612181
1081,2.1905377,0.20945042,-0.24083363,0.083612181
1082,2.1925373,0.21128301,-0.24694228,0.083612181
1083,2.1945373,0.21616994,-0.25549439,0.086055644
1084,2.1965373,0.22105686,-0.26404649,0.089109965
1085,2.1985373,0.22227859,-0.26587909,0.092164293
1086,2.2005373,0.22899811,-0.2854268,0.098883815
1087,2.2025365,0.23021984,-0.29153544,0.10010554
1088,2.2045365,0.2326633,-0.2958115,0.10682506
1089,2.2065365,0.23510677,-0.30802879,0.10865766
1090,2.2085366,0.23938282,-0.31413746,0.10987939
1091,2.2105366,0.23999368,-0.32696563,0.11720977
1092,2.212537,0.23938282,-0.32818735,0.1184315
1093,2.2145369,0.23938282,-0.33185256,0.12270755
1094,2.2165369,0.23816109,-0.33429602,0.12270755
1095,2.2185373,0.23205243,-0.33490688,0.12820534
1096,2.2205372,0.22960897,-0.33490688,0.13309227
1097,2.2225378,0.22594379,-0.33490688,0.13309227
1098,2.2245386,0.22288945,-0.3379612,0.13736832
1099,2.2265395,0.21739167,-0.34223726,0.13920091
1100,2.2285403,0.21800253,-0.34529158,0.1428661
1101,2.2305412,0.21494821,-0.34895676,0.14775303
1102,2.2325413,0.20883955,-0.35995236,0.15019649
1103,2.2345413,0.20639609,-0.36117408,0.15141822
1104,2.2365413,0.20883955,-0.36789361,0.15141822
1105,2.2385414,0.20822869,-0.37705657,0.15447254
1106,2.2405414,0.21006128,-0.38499781,0.15630515
1107,2.2425406,0.21128301,-0.3904956,0.15508342
1108,2.2445397,0.21250474,-0.40332377,0.15508342
1109,2.2465397,0.2167808,-0.4100433,0.15141822
1110,2.2485397,0.22166772,-0.42042801,0.15202908
1111,2.2505397,0.22899811,-0.43508878,0.14775303
1112,2.2525392,0.23205243,-0.43997568,0.1483639
1113,2.2545392,0.24121541,-0.45219299,0.14347698
1114,2.2565392,0.25160012,-0.46685377,0.13797919
1115,2.2585392,0.25831965,-0.47479501,0.13675746
1116,2.2605392,0.26931521,-0.4888449,0.13125966
1117,2.2625397,0.27969992,-0.49922961,0.12820534
1118,2.2645397,0.28153253,-0.50594914,0.1288162
1119,2.2665397,0.29313895,-0.51572299,0.12759447
1120,2.2685396,0.30230194,-0.52427512,0.12698361
1121,2.2705396,0.30902144,-0.53099459,0.13003793
1122,2.2725396,0.31268665,-0.53404891,0.13125966
1123,2.2745396,0.31879529,-0.54199016,0.13309227
1124,2.2765396,0.3224605,-0.54504454,0.13614659
1125,2.2785396,0.31940615,-0.5542075,0.14469871
1126,2.2805396,0.31574097,-0.5737552,0.15691601
1127,2.2825391,0.30902144,-0.58902681,0.16668986
1128,2.2845382,0.30169109,-0.6226244,0.18562667
1129,2.2865374,0.29619327,-0.62140268,0.19356793
1130,2.2885366,0.29313895,-0.61529404,0.20028745
1131,2.2905366,0.2943607,-0.61040711,0.20639609
1132,2.2925365,0.29680416,-0.61040711,0.20212004
1133,2.2945365,0.30413455,-0.60368758,0.19906572
1134,2.2965365,0.31268665,-0.57680953,0.19784398
1135,2.2985364,0.31451926,-0.56092703,0.19417879
1136,2.3005364,0.31879529,-0.50594914,0.17890716
1137,2.3025371,0.31757358,-0.49006665,0.17340937
1138,2.3045379,0.31574097,-0.4802928,0.16791159
1139,2.3065379,0.30779973,-0.46013424,0.15386169
1140,2.308538,0.29924762,-0.44730607,0.14042264
1141,2.310538,0.29130638,-0.43753225,0.13125966
1142,2.3125392,0.28580856,-0.43264532,0.12759447
1143,2.3145392,0.27786732,-0.42836925,0.12515102
1144,2.3165393,0.27786732,-0.42836925,0.12209669
1145,2.3185393,0.26931521,-0.42836925,0.12148582
1146,2.3205393,0.26381743,-0.43692136,0.12209669
1147,2.3225388,0.26137397,-0.44608435,0.12515102
1148,2.3245379,0.2589305,-0.46685377,0.12759447
1149,2.3265371,0.25770879,-0.49556443,0.13675746
1150,2.3285362,0.25770879,-0.51389039,0.13981178
1151,2.3305362,0.26687175,-0.57314432,0.14775303
1152,2.3325362,0.27420214,-0.59513545,0.14958562
1153,2.3345362,0.27908906,-0.61590487,0.15141822
1154,2.3365362,0.29191723,-0.65866548,0.15874861
1155,2.3385362,0.30352366,-0.70081514,0.1642464
1156,2.3405361,0.31757358,-0.74113226,0.16791159
1157,2.342537,0.32734743,-0.75823647,0.16852245
1158,2.3445378,0.33956471,-0.78511453,0.17096591
1159,2.3465386,0.34384078,-0.79672098,0.17157678
1160,2.3485395,0.35239288,-0.819323,0.17340937
1161,2.3505394,0.35483634,-0.83031857,0.17340937
1162,2.352539,0.35361463,-0.8370381,0.17035505
1163,2.354539,0.3487277,-0.84070331,0.17096591
1164,2.3565391,0.34017557,-0.83581638,0.17096591
1165,2.3585391,0.33589953,-0.83215117,0.17218764
1166,2.3605391,0.32123876,-0.819323,0.17585284
1167,2.3625384,0.30718887,-0.80344051,0.17890716
1168,2.3645376,0.29497156,-0.79183406,0.18257235
1169,2.3665368,0.27359128,-0.77167553,0.18623754
1170,2.3685359,0.25282186,-0.74357569,0.19295706
1171,2.370535,0.22716552,-0.70631295,0.2008983
1172,2.3725345,0.21555908,-0.68737614,0.20334177
1173,2.3745345,0.19478965,-0.64522642,0.21372648
1174,2.3765344,0.18318321,-0.62690043,0.22105686
1175,2.3785344,0.16119206,-0.60674191,0.2363285
1176,2.3805344,0.134314,-0.60857451,0.25526533
1177,2.3825352,0.12270755,-0.61346143,0.26259568
1178,2.3845361,0.097051218,-0.61346143,0.28275424
1179,2.3865369,0.077503525,-0.61223972,0.30352366
1180,2.3885378,0.068951413,-0.60796362,0.31329751
1181,2.3905378,0.062231898,-0.60857451,0.32918
1182,2.3925378,0.058566704,-0.60124409,0.34933856
1183,2.3945378,0.061010167,-0.59818977,0.35605809
1184,2.3965378,0.07078401,-0.59269202,0.36888626
1185,2.3985378,0.090942562,-0.58902681,0.37560576
1186,2.4005378,0.12148582,-0.58291817,0.37804922
1187,2.4025369,0.13859005,-0.58352906,0.37621662
1188,2.404537,0.16974418,-0.61651576,0.37010798
1189,2.406537,0.18257235,-0.64278293,0.36827537
1190,2.408537,0.20822869,-0.70142603,0.35972327
1191,2.4105371,0.23327416,-0.79244494,0.3554472
1192,2.4125375,0.24732406,-0.84070331,0.3554472
1193,2.4145375,0.27725646,-0.93721998,0.36522105
1194,2.4165375,0.31268665,-1.0355693,0.37194058
1195,2.4185375,0.33162346,-1.086882,0.37988183
1196,2.4205375,0.37194058,-1.1882856,0.38782308
1197,2.4225382,0.41164681,-1.2890784,0.4012621
1198,2.424539,0.43485969,-1.3397802,0.40614903
1199,2.4265398,0.47884199,-1.4424056,0.41592288
1200,2.4285407,0.51976997,-1.5431983,0.42508584
1201,2.4305415,0.55703276,-1.6311629,0.43608144
1202,2.4325417,0.57169354,-1.6720909,0.44035748
1203,2.4345418,0.58940858,-1.7099645,0.44707701
1204,2.4365418,0.61323237,-1.7747163,0.46173778
1205,2.4385418,0.62728226,-1.8241963,0.47762027
1206,2.4405419,0.6333909,-1.8535179,0.49594623
1207,2.442541,0.63583434,-1.8669569,0.50633091
1208,2.4445402,0.6315583,-1.8816177,0.53015465
1209,2.4465402,0.62789309,-1.8828394,0.5399285
1210,2.4485403,0.61445409,-1.8834503,0.56802833
1211,2.4505403,0.59490639,-1.8803959,0.59063035
1212,2.4525399,0.58207822,-1.8767308,0.60529113
1213,2.4545399,0.55275667,-1.8767308,0.62911487
1214,2.4565399,0.52038085,-1.8761199,0.65354943
1215,2.4585399,0.50083315,-1.875509,0.66515589
1216,2.4605399,0.44829872,-1.8590157,0.69508827
1217,2.4625407,0.43363798,-1.8498527,0.70608389
1218,2.4645407,0.41958806,-1.8370245,0.71402514
1219,2.4665407,0.39820778,-1.8046486,0.72868586
1220,2.4685406,0.38476875,-1.7704402,0.74334663
1221,2.4705406,0.37682751,-1.7392861,0.75006616
1222,2.4725406,0.37194058,-1.7234036,0.75312048
1223,2.4745405,0.36888626,-1.6953038,0.75556397
1224,2.4765405,0.3664428,-1.6861408,0.75495309
1225,2.4785405,0.36094502,-1.6720909,0.75250965
1226,2.4805405,0.36033413,-1.6641496,0.75373137
1227,2.4825398,0.35850155,-1.6598736,0.75678569
1228,2.484539,0.36216673,-1.6635388,0.75678569
1229,2.4865382,0.37071884,-1.6696475,0.76167262
1230,2.4885374,0.3731623,-1.6769779,0.76533777
1231,2.4905374,0.38354701,-1.689806,0.77144647
1232,2.4925375,0.39332086,-1.7130189,0.78122032
1233,2.4945375,0.39698604,-1.7240144,0.78732896
1234,2.4965374,0.40737075,-1.7460055,0.80321145
1235,2.4985374,0.42019892,-1.7673858,0.81726134
1236,2.5005374,0.43058363,-1.7832683,0.83192211
1237,2.5025382,0.43608144,-1.7899879,0.83925247
1238,2.504539,0.45318565,-1.8064812,0.84658289
1239,2.506539,0.45929432,-1.8156443,0.84841549
1240,2.508539,0.48372892,-1.8315268,0.85146981
1241,2.510539,0.50633091,-1.8535179,0.84963721
1242,2.512539,0.51732653,-1.8675678,0.84902632
1243,2.514539,0.53870678,-1.8962784,0.8441394
1244,2.5165391,0.56436312,-1.9286543,0.83375472
1245,2.5185391,0.57535869,-1.9427042,0.83253294
1246,2.5205391,0.6004042,-1.9695823,0.82886779
1247,2.5225383,0.62361705,-1.9958495,0.8307004
1248,2.5245375,0.63461262,-2.011121,0.83436555
1249,2.5265366,0.65232772,-2.0416644,0.84475029
1250,2.5285358,0.6688211,-2.0734293,0.85024804
1251,2.5305349,0.69203395,-2.110692,0.87346095
1252,2.5325349,0.70119697,-2.1339049,0.88201308
1253,2.5345345,0.72440982,-2.1888828,0.89484125
1254,2.5365345,0.7366271,-2.220037,0.9009499
1255,2.5385345,0.75984001,-2.2951734,0.91255629
1256,2.5405345,0.78671807,-2.3813055,0.92904967
1257,2.5425353,0.79710281,-2.4295638,0.9357692
1258,2.5445362,0.82398087,-2.5260806,0.94676477
1259,2.546537,0.85452414,-2.6342037,0.96386898
1260,2.5485378,0.87040663,-2.6855164,0.97058851
1261,2.5505377,0.9027825,-2.7936394,0.98280585
1262,2.5525368,0.91866499,-2.8437304,0.98586017
1263,2.5545368,0.95837122,-2.9494102,0.99685574
1264,2.5565368,0.99319053,-3.0489812,1.0035752
1265,2.5585365,1.0261773,-3.144887,1.0035752
1266,2.5605365,1.0585531,-3.2273538,1.0096838
1267,2.5625357,1.0732139,-3.26706,1.0109056
1268,2.5645349,1.0854312,-3.3024902,1.0145708
1269,2.566534,1.1110876,-3.366631,1.0188469
1270,2.5685332,1.1336895,-3.4173329,1.0194577
1271,2.5705326,1.1569024,-3.4545956,1.0164034
1272,2.572533,1.1648437,-3.4747543,1.0170143
1273,2.5745329,1.1868348,-3.4997997,1.0121274
1274,2.5765329,1.1929435,-3.5107954,1.0133491
1275,2.5785328,1.2088259,-3.5309539,1.0151817
1276,2.5805328,1.217989,-3.5651622,1.0145708
1277,2.5825336,1.2204324,-3.5810447,1.0188469
1278,2.5845345,1.2210432,-3.6183076,1.0280099
1279,2.5865353,1.2228758,-3.6488509,1.0445032
1280,2.5885362,1.2185998,-3.6635115,1.0548879
1281,2.5905371,1.2210432,-3.6861136,1.0903181
1282,2.5925368,1.2247084,-3.6879463,1.0988702
1283,2.5945371,1.2277628,-3.6867244,1.1129202
1284,2.5965372,1.2375367,-3.6781723,1.1269701
1285,2.5985372,1.2454779,-3.6732855,1.1404091
1286,2.6005372,1.2503648,-3.6635115,1.1440742
1287,2.6025364,1.2491431,-3.6525161,1.1477394
1288,2.6045364,1.2491431,-3.615864,1.1483504
1289,2.6065364,1.249754,-3.5950947,1.1477394
1290,2.6085364,1.2515866,-3.5419495,1.1410199
1291,2.6105364,1.2473105,-3.4839172,1.1330787
1292,2.6125373,1.2460887,-3.4576499,1.1275809
1293,2.6145373,1.2393693,-3.3971744,1.1202505
1294,2.6165373,1.2247084,-3.3354769,1.117807
1295,2.6185376,1.217378,-3.3012686,1.1147528
1296,2.6205375,1.1837804,-3.1900911,1.1190288
1297,2.622538,1.1721741,-3.1516066,1.1220831
1298,2.6245388,1.1581241,-3.1119003,1.1245265
1299,2.6265396,1.1257483,-3.0208814,1.1343004
1300,2.6285405,1.0927615,-2.9249754,1.1477394
1301,2.6305411,1.0548879,-2.8211284,1.1630111
1302,2.632541,1.0371728,-2.768594,1.1721741
1303,2.634541,0.98769271,-2.6665795,1.1996629
1304,2.6365411,0.96142554,-2.6183212,1.2124912
1305,2.6385411,0.89606297,-2.54685,1.2528082
1306,2.6405411,0.83008951,-2.4723244,1.2931254
1307,2.6425403,0.80015713,-2.4338398,1.3157274
1308,2.6445395,0.74823356,-2.3727534,1.3572662
1309,2.6465395,0.70119697,-2.3293819,1.3963616
1310,2.6485395,0.68042755,-2.3116667,1.4134659
1311,2.6505395,0.64499736,-2.2915082,1.4482851
1312,2.6525395,0.60590196,-2.2841778,1.4800501
1313,2.6545394,0.58818686,-2.2872322,1.4959326
1314,2.6565394,0.55520016,-2.3110559,1.5283085
1315,2.6585394,0.524046,-2.3544273,1.5655713
1316,2.6605393,0.50083315,-2.4204009,1.6089427
1317,2.6625402,0.49289191,-2.4564419,1.6321555
1318,2.6645402,0.48739409,-2.5376871,1.6730835
1319,2.6665402,0.4892267,-2.5798366,1.6926312
1320,2.6685402,0.50755268,-2.6714664,1.7188984
1321,2.6705402,0.54115027,-2.7692049,1.7378353
1322,2.6725403,0.56375223,-2.8254044,1.7445548
1323,2.6745403,0.61689752,-2.945745,1.7592156
1324,2.6765403,0.66515589,-3.0868547,1.779985
1325,2.6785404,0.69325572,-3.1662674,1.7983109
1326,2.6805404,0.73907059,-3.3483052,1.8453475
1327,2.6825401,0.75373137,-3.448487,1.8856647
1328,2.6845392,0.77327907,-3.6897788,2.0145571
1329,2.6865384,0.77511162,-3.9500074,2.1739931
1330,2.6885375,0.77877682,-4.0721803,2.2552381
1331,2.6905375,0.80137885,-4.4026585,2.4702628
1332,2.6925375,0.82092655,-4.4936776,2.5313492
1333,2.6945375,0.86063278,-4.6457829,2.627255
1334,2.6965375,0.88262391,-4.7087021,2.6669612
1335,2.6985374,0.93271488,-4.7875037,2.7268262
1336,2.7005374,0.98586017,-4.8247666,2.759202
1337,2.7025382,1.0157925,-4.8253775,2.7646997
1338,2.7045391,1.0658835,-4.8137708,2.7604237
1339,2.706539,1.0897073,-4.795445,2.7518716
1340,2.708539,1.1367439,-4.7422996,2.7188849
1341,2.710539,1.1788936,-4.6488371,2.6736808
1342,2.7125394,1.1972195,-4.5871396,2.6437485
1343,2.7145394,1.2259302,-4.4509168,2.5851054
1344,2.7165394,1.2454779,-4.3000331,2.5240188
1345,2.7185395,1.2521974,-4.2206206,2.4965298
1346,2.7205395,1.2503648,-3.9842157,2.4262805
1347,2.7225387,1.2418127,-3.906636,2.4091761
1348,2.7245378,1.2326497,-3.8339429,2.3932936
1349,2.726537,1.1953869,-3.6995525,2.3664155
1350,2.7285361,1.1477394,-3.5645514,2.3444245
1351,2.7305352,1.0958159,-3.4191656,2.3346505
1352,2.7325343,1.072603,-3.34464,2.3297637
1353,2.7345343,1.0347294,-3.190702,2.3193791
1354,2.7365343,1.0176251,-3.1143436,2.3096051
1355,2.7385342,0.98952532,-2.9683468,2.287003
1356,2.7405342,0.96631247,-2.8162415,2.2589033
1357,2.7425346,0.95898205,-2.7423267,2.2430208
1358,2.7445355,0.94554305,-2.5896106,2.2118666
1359,2.7465364,0.93699092,-2.4448354,2.17888
1360,2.7485373,0.93882352,-2.3709207,2.1593323
1361,2.7505373,0.93638009,-2.156507,2.0890827
1362,2.7525373,0.93638009,-2.084425,2.0597613
1363,2.7545374,0.93454748,-2.0160081,2.0286071
1364,2.7565374,0.92904967,-1.870622,1.9595793
1365,2.7585374,0.91927582,-1.7203492,1.8868864
1366,2.7605375,0.89728469,-1.5578591,1.8215238
1367,2.7625366,0.88262391,-1.4692836,1.793424
1368,2.7645357,0.84108508,-1.2860241,1.7421113
1369,2.7665349,0.8129853,-1.1827878,1.7243962
1370,2.768534,0.74151403,-0.96348721,1.7017943
1371,2.7705331,0.65171689,-0.73685622,1.7085137
1372,2.7725328,0.59796071,-0.61773747,1.7195094
1373,2.7745327,0.48006374,-0.37216964,1.7622699
1374,2.7765327,0.34567338,-0.11133019,1.8276324
1375,2.7785327,0.27969992,0.023671029,1.8642844
1376,2.7805326,0.13003793,0.29733866,1.9436969
1377,2.7825335,-0.024510968,0.57222801,2.0200551
1378,2.7845343,-0.10209085,0.70600748,2.0567069
1379,2.7865351,-0.25358543,0.97112304,2.1300108
1380,2.788536,-0.40324742,1.2124147,2.1886537
1381,2.7905368,-0.53885949,1.4207199,2.2308035
1382,2.7925377,-0.60300034,1.5141822,2.2472968
1383,2.7945378,-0.717843,1.6620116,2.2686772
1384,2.7965378,-0.76976657,1.7218764,2.2766185
1385,2.7985378,-0.85773116,1.8061758,2.2753966
1386,2.8005379,-0.92492634,1.8452712,2.2680664
1387,2.8025373,-0.94508487,1.8458821,2.2558489
1388,2.8045373,-0.97440642,1.8104519,2.2320251
1389,2.8065373,-0.97379553,1.7249308,2.2118666
1390,2.8085373,-0.96585429,1.6656768,2.1996493
1391,2.8105373,-0.92981327,1.5190692,2.1819344
1392,2.8125372,-0.87483537,1.3394748,2.1678843
1393,2.8145369,-0.83940518,1.2405146,2.1672735
1394,2.8165369,-0.74777544,1.0315987,2.1697171
1395,2.8185369,-0.63904142,0.80741113,2.1880429
1396,2.8205368,-0.51198143,0.56611937,2.2179754
1397,2.8225377,-0.446008,0.44150287,2.2381339
1398,2.8245386,-0.31283936,0.18982637,2.2802837
1399,2.8265394,-0.24625506,0.057879481,2.3047183
1400,2.8285403,-0.12408201,-0.19318613,2.3554201
1401,2.8305412,-0.016569721,-0.43569964,2.4055109
1402,2.8325415,0.033521231,-0.54809886,2.4317782
1403,2.8345415,0.12148582,-0.76006907,2.4855344
1404,2.8365415,0.15813774,-0.85780752,2.5160775
1405,2.8385415,0.22227859,-1.0294607,2.5863271
1406,2.8405416,0.27175868,-1.1699597,2.6510787
1407,2.8425407,0.28947377,-1.2292136,2.6889524
1408,2.8445399,0.31635183,-1.3086261,2.7604237
1409,2.8465399,0.32612568,-1.3599387,2.8404469
1410,2.84854,0.32429308,-1.3739886,2.8801532
1411,2.85054,0.29558241,-1.3886495,2.9998829
1412,2.85254,0.28092167,-1.3788756,3.0395892
1413,2.85454,0.26503915,-1.3642148,3.0786846
1414,2.85654,0.22899811,-1.3183999,3.1532099
1415,2.8585399,0.18745928,-1.2567025,3.2314007
1416,2.8605399,0.14347698,-1.1754575,3.3028719
1417,2.8625407,0.12576188,-1.1247556,3.3321936
1418,2.8645407,0.087277375,-1.009913,3.3896148
1419,2.8665407,0.067729682,-0.95065904,3.4122169
1420,2.8685407,0.028023442,-0.82115561,3.4519231
1421,2.8705407,-0.020845776,-0.6947065,3.4726925
1422,2.8725407,-0.049556442,-0.63606346,3.4788013
1423,2.874541,-0.11064297,-0.53343809,3.4849098
1424,2.8765411,-0.17783815,-0.43997568,3.4726925
1425,2.8785411,-0.21326832,-0.40271291,3.4616971
1426,2.8805411,-0.31406111,-0.32146785,3.420769
1427,2.8825403,-0.34521523,-0.30069843,3.4054973
1428,2.8845395,-0.37209329,-0.28053987,3.384728
1429,2.8865386,-0.4301255,-0.25977045,3.3517413
1430,2.8885377,-0.4789947,-0.24083363,3.3199763
1431,2.8905377,-0.5248096,-0.22617286,3.279659
1432,2.8925377,-0.54130298,-0.21884248,3.2601116
1433,2.8945377,-0.58284181,-0.21884248,3.225903
1434,2.8965377,-0.59994602,-0.2096795,3.2081878
1435,2.8985377,-0.63048929,-0.18402316,3.1629839
1436,2.9005377,-0.65675652,-0.15347989,3.1061735
1437,2.9025382,-0.67141724,-0.14065172,3.076241
1438,2.9045391,-0.704404,-0.11682798,3.0212631
1439,2.906539,-0.74288851,-0.086284719,2.96262
1440,2.908539,-0.76365793,-0.07040222,2.9320769
1441,2.9105396,-0.81069452,-0.031306844,2.8752663
1442,2.9125396,-0.87361366,0.018784106,2.8276188
1443,2.9145395,-0.90843296,0.044440448,2.8080711
1444,2.9165395,-0.98173678,0.093920529,2.7695866
1445,2.9185396,-1.0697014,0.13912456,2.7292695
1446,2.9205396,-1.161942,0.19165897,2.6920068
1447,2.9225388,-1.2089787,0.21548271,2.6694047
1448,2.924538,-1.298165,0.28817567,2.6370289
1449,2.9265372,-1.3360387,0.32788193,2.6144269
1450,2.9285363,-1.4062881,0.39752057,2.5661685
1451,2.9305358,-1.4710399,0.45066583,2.5252407
1452,2.9325354,-1.5015831,0.46899179,2.5026386
1453,2.9345354,-1.5632805,0.48548517,2.4629323
1454,2.9365353,-1.6207019,0.48915035,2.4256694
1455,2.9385353,-1.6445256,0.48915035,2.4079545
1456,2.9405353,-1.6799558,0.49281552,2.3706918
1457,2.9425361,-1.7141643,0.46410486,2.3383157
1458,2.9445369,-1.7306576,0.4549419,2.3206007
1459,2.9465378,-1.7685312,0.42989641,2.287003
1460,2.9485387,-1.805794,0.40057489,2.2576816
1461,2.9505387,-1.8442786,0.37308595,2.2356904
1462,2.9525387,-1.8662697,0.3474296,2.2253058
1463,2.9545388,-1.9224693,0.29917124,2.2045362
1464,2.9565388,-1.9493474,0.27229318,2.1886537
1465,2.9585388,-2.005547,0.21303925,2.1562779
1466,2.9605389,-2.0556378,0.1470658,2.1257348
1467,2.9625383,-2.0751855,0.10552697,2.1067979
1468,2.9645375,-2.1179461,0.025503624,2.0609829
1469,2.9665366,-2.1509328,-0.016035212,2.0389919
1470,2.9685357,-2.2211823,-0.11316279,1.9846249
1471,2.9705342,-2.2932644,-0.17913623,1.92476
1472,2.9725342,-2.2792146,-0.16814066,1.866117
1473,2.9745342,-2.272495,-0.20906863,1.8490127
1474,2.9765342,-2.2767711,-0.30558532,1.784261
1475,2.9785342,-2.2816579,-0.33307427,1.7549394
1476,2.9805342,-2.3164773,-0.29092458,1.6498706
1477,2.9825349,-2.3134232,-0.23350324,1.6284903
1478,2.9845357,-2.3030384,-0.19501872,1.6132188
1479,2.9865366,-2.3012056,-0.1638646,1.5777886
1480,2.9885374,-2.2792146,-0.12660182,1.5313628
1481,2.9905379,-2.2107978,-0.10033461,1.4330136
1482,2.9925383,-2.168648,-0.1217149,1.3505467
1483,2.9945383,-2.1234438,-0.28115073,1.145296
1484,2.9965383,-2.1155026,-0.38988474,1.0341185
1485,2.9985383,-2.1130593,-0.65500027,0.82825691
1486,3.0005384,-2.1100049,-0.91706145,0.67309713
1487,3.0025375,-2.1063397,-0.98547834,0.60895628
1488,3.0045376,-2.0764074,-1.0661125,0.46051604
1489,3.0065376,-2.037312,-1.1815661,0.33101261
1490,3.0085376,-2.0183752,-1.2359331,0.29008463
1491,3.0105376,-1.9847776,-1.3074044,0.22899811
1492,3.0125376,-1.9695059,-1.3129021,0.23510677
1493,3.0145376,-1.9585103,-1.313513,0.25526533
1494,3.0165375,-1.9401844,-1.2548699,0.31818444
1495,3.0185375,-1.918804,-1.1381947,0.38843393
1496,3.0205375,-1.8815414,-1.0007499,0.46601382
1497,3.0225383,-1.8601611,-0.91706145,0.50144398
1498,3.0245392,-1.8131244,-0.76373428,0.56191969
1499,3.02654,-1.7911333,-0.70386946,0.58879775
1500,3.0285409,-1.7361554,-0.62079179,0.63033658
1501,3.0305418,-1.6762906,-0.57986385,0.6529386
1502,3.0325421,-1.6475799,-0.57253343,0.65965813
1503,3.0345422,-1.588326,-0.55970526,0.64866251
1504,3.0365422,-1.5174656,-0.55726182,0.60223675
1505,3.0385422,-1.4771485,-0.5542075,0.56497401
1506,3.0405423,-1.39346,-0.56337047,0.46784642
1507,3.0425414,-1.2957215,-0.56825739,0.33712125
1508,3.0445405,-1.243798,-0.56886828,0.26931521
1509,3.0465405,-1.135064,-0.55848354,0.11782064
1510,3.0485405,-1.0293843,-0.5328272,-0.033673946
1511,3.0505405,-0.93470019,-0.4888449,-0.18883371
1512,3.0525405,-0.89499396,-0.46624291,-0.26458099
1513,3.0545405,-0.80702937,-0.41737369,-0.41118866
1514,3.0565405,-0.76976657,-0.3837761,-0.48449251
1515,3.0585405,-0.69157583,-0.3135266,-0.63110018
1516,3.0605404,-0.62743497,-0.24205536,-0.77587521
1517,3.0625412,-0.59811342,-0.21212296,-0.84062696
1518,3.0645412,-0.55168766,-0.15897769,-0.96585429
1519,3.0665412,-0.52542049,-0.12293663,-1.0788643
1520,3.0685411,-0.52603132,-0.12049317,-1.1295662
1521,3.0705411,-0.56634843,-0.15347989,-1.2175308
1522,3.0725411,-0.66836292,-0.21212296,-1.2920563
1523,3.0745411,-0.7196756,-0.21700987,-1.3287083
1524,3.0765412,-0.80825108,-0.17058411,-1.3977361
1525,3.0785412,-0.88644183,-0.10644327,-1.4643203
1526,3.0805412,-0.94569576,-0.051465396,-1.5309047
1527,3.0825404,-0.95424789,-0.017867809,-1.5675566
1528,3.0845395,-0.96463257,0.025503624,-1.6023759
1529,3.0865387,-0.96707606,0.14278975,-1.670182
1530,3.0885378,-0.96463257,0.29061913,-1.7031686
1531,3.0905378,-0.98723459,0.58872139,-1.5987107
1532,3.0925375,-1.0153344,0.70722926,-1.5046375
1533,3.0945374,-1.0593166,0.77137011,-1.3061062
1534,3.0965374,-1.1100185,0.64675355,-1.1002446
1535,3.0985374,-1.1368966,0.52763486,-0.99395412
1536,3.1005373,-1.1766028,0.23564127,-0.77709693
1537,3.1025382,-1.1839333,0.10369437,-0.66225427
1538,3.1045391,-1.1857657,-0.10155635,-0.41790819
1539,3.1065391,-1.1631638,-0.28481591,-0.16256651
1540,3.1085391,-1.1375074,-0.37461311,-0.020845776
1541,3.1105392,-1.0183887,-0.62812221,0.3994295
1542,3.1125392,-0.96768689,-0.68798697,0.51671565
1543,3.1145392,-0.91515249,-0.72219545,0.62789309
1544,3.1165393,-0.80336416,-0.73441273,0.82947862
1545,3.1185393,-0.69157583,-0.67149365,0.99441224
1546,3.1205393,-0.58528525,-0.5737552,1.1318569
1547,3.1225385,-0.54191381,-0.52183163,1.1905
1548,3.1245376,-0.46127963,-0.44119743,1.2894602
1549,3.1265367,-0.4264603,-0.41493022,1.3334424
1550,3.1285359,-0.37087157,-0.3923282,1.4171311
1551,3.1305359,-0.33177617,-0.38866302,1.4928783
1552,3.1325363,-0.31650457,-0.39538252,1.5258651
1553,3.1345363,-0.29512426,-0.41248676,1.5777886
1554,3.1365362,-0.28657216,-0.43753225,1.6126078
1555,3.1385362,-0.28840476,-0.4540256,1.6248252
1556,3.1405362,-0.29756773,-0.48151454,1.6309339
1557,3.1425374,-0.29817858,-0.48334712,1.6266578
1558,3.1445383,-0.3122285,-0.47479501,1.6187166
1559,3.1465391,-0.31711543,-0.42836925,1.585119
1560,3.1485399,-0.31772628,-0.3397938,1.5160912
1561,3.1505399,-0.30856332,-0.20295998,1.4165201
1562,3.15254,-0.30489811,-0.13454308,1.3548228
1563,3.15454,-0.29695687,-0.052687127,1.2076043
1564,3.15654,-0.3036764,-0.052076261,1.1294135
1565,3.1585401,-0.3299436,-0.14737125,0.96264726
1566,3.1605401,-0.36842811,-0.29642236,0.79404849
1567,3.1625392,-0.39225185,-0.37888917,0.70852733
1568,3.1645384,-0.43134722,-0.53099459,0.54053938
1569,3.1665375,-0.46189049,-0.64644814,0.37194058
1570,3.1685366,-0.47105345,-0.68432176,0.28886291
1571,3.1705358,-0.47716212,-0.7142542,0.11476631
1572,3.1725357,-0.46311221,-0.73624533,-0.046502117
1573,3.1745357,-0.44967318,-0.74418658,-0.10392345
1574,3.1765357,-0.41241041,-0.75334954,-0.16562083
1575,3.1785356,-0.35498905,-0.73868883,-0.15890132
1576,3.1805356,-0.28657216,-0.69592822,-0.10636691
1577,3.1825365,-0.25480717,-0.66477412,-0.066660672
1578,3.1845374,-0.18883371,-0.58597249,0.028023442
1579,3.1865383,-0.15706873,-0.54504454,0.079336122
1580,3.1885392,-0.097814798,-0.46379945,0.16974418
1581,3.1905392,-0.049556442,-0.40149119,0.2503784
1582,3.1925388,-0.027565295,-0.38072178,0.28641945
1583,3.1945389,0.012140946,-0.35384369,0.34445164
1584,3.1965389,0.046349399,-0.34468073,0.38660133
1585,3.1985389,0.062231898,-0.34712419,0.39393172
1586,3.2005389,0.095218621,-0.39171734,0.24304801
1587,3.2025377,0.10315987,-0.40149119,0.12698361
1588,3.2045377,0.080557853,-0.4277584,-0.11919508
1589,3.2065377,0.046349399,-0.44180828,-0.31528282
1590,3.2085377,0.040851612,-0.4167628,-0.37087157
1591,3.2105377,0.064675361,-0.37461311,-0.30184379
1592,3.2125377,0.079946987,-0.3575089,-0.24686591
1593,3.2145375,0.11965323,-0.33368513,-0.12530373
1594,3.2165374,0.13981178,-0.33124167,-0.06421721
1595,3.2185374,0.17218764,-0.33551773,0.037797287
1596,3.2205374,0.19540052,-0.33918291,0.11904237
1597,3.2225387,0.20273091,-0.33551773,0.15202908
1598,3.2245395,0.2167808,-0.31902438,0.22105686
1599,3.2265404,0.22288945,-0.29764408,0.30718887
1600,3.2285412,0.22044599,-0.28725937,0.35361463
1601,3.2305421,0.20761782,-0.28359419,0.44035748
1602,3.232542,0.18990274,-0.2921463,0.49594623
1603,3.234542,0.18135062,-0.30192015,0.5069418
1604,3.2365421,0.1727985,-0.33918291,0.49961141
1605,3.2385421,0.18257235,-0.37766743,0.45685086
1606,3.2405421,0.20945042,-0.40515637,0.38965568
1607,3.2425413,0.22899811,-0.40393466,0.35117117
1608,3.2445404,0.2485458,-0.39965859,0.30841058
1609,3.2465404,0.29008463,-0.366061,0.21922426
1610,3.2485404,0.34078646,-0.30925053,0.12392928
1611,3.2505403,0.39209914,-0.24083363,0.029245174
1612,3.2525403,0.41958806,-0.20173825,-0.011682798
1613,3.2545403,0.46601382,-0.13515393,-0.091706142
1614,3.2565402,0.48495063,-0.10949759,-0.1259146
1615,3.2585402,0.50816351,-0.072845683,-0.19188805
1616,3.2605402,0.50999612,-0.060017511,-0.25053111
1617,3.262541,0.49838969,-0.060628377,-0.27802005
1618,3.264541,0.46662468,-0.088117309,-0.32200235
1619,3.2665411,0.41103595,-0.13637567,-0.3562108
1620,3.2685411,0.37438405,-0.16814066,-0.36659551
1621,3.2705411,0.22166772,-0.2921463,-0.40691262
1622,3.2725412,0.15202908,-0.33918291,-0.42890376
1623,3.2745414,0.079336122,-0.38072178,-0.45028403
1624,3.2765414,-0.10575604,-0.50228393,-0.46860999
1625,3.2785414,-0.32505667,-0.57742035,-0.46005788
1626,3.2805414,-0.5461899,-0.69043046,-0.42890376
1627,3.2825401,-0.65125871,-0.76312339,-0.40385827
1628,3.2845392,-0.86811584,-0.86086184,-0.34826955
1629,3.2865384,-0.98356938,-0.86513788,-0.31345022
1630,3.2885375,-1.1863767,-0.86269444,-0.24747679
1631,3.2905375,-1.3268757,-0.8718574,-0.20349449
1632,3.2925374,-1.3702471,-0.88468558,-0.19249891
1633,3.2945374,-1.4313337,-0.87979865,-0.17050776
1634,3.2965373,-1.4630986,-0.85353148,-0.15096007
1635,3.2985378,-1.4722615,-0.84559023,-0.13202325
1636,3.3005378,-1.484479,-0.85902923,-0.086208358
1637,3.3025386,-1.5052483,-0.90362239,-0.012293663
1638,3.3045394,-1.5260178,-0.93355483,0.034132097
1639,3.3065394,-1.5816065,-1.0025826,0.14775303
1640,3.3085395,-1.6597972,-1.0874928,0.27298039
1641,3.3105395,-1.7355446,-1.1925616,0.40614903
1642,3.3125395,-1.7636443,-1.259146,0.47273335
1643,3.3145396,-1.7886899,-1.3941472,0.59612811
1644,3.3165396,-1.7838029,-1.4552337,0.65049511
1645,3.3185396,-1.7392097,-1.5651895,0.75373137
1646,3.3205397,-1.6512451,-1.6446019,0.8441394
1647,3.3225388,-1.5846608,-1.662317,0.88018048
1648,3.3245379,-1.4148402,-1.6739235,0.93882352
1649,3.326537,-1.2156982,-1.653154,0.99746656
1650,3.3285361,-1.1197923,-1.6562084,1.0310642
1651,3.3305361,-0.93531102,-1.6598736,1.1098658
1652,3.332536,-0.77770782,-1.6659822,1.1886674
1653,3.334536,-0.71051264,-1.6891952,1.2253193
1654,3.336536,-0.57245708,-1.703245,1.2937362
1655,3.338536,-0.41241041,-1.6727017,1.3487141
1656,3.340536,-0.20166188,-1.5389223,1.3871986
1657,3.3425368,-0.088651821,-1.4552337,1.4067463
1658,3.3445377,0.14347698,-1.2921327,1.4458417
1659,3.3465386,0.25526533,-1.2005029,1.4721088
1660,3.3485394,0.4647921,-1.0343475,1.5191455
1661,3.3505394,0.65477121,-0.90850931,1.5619061
1662,3.3525396,0.74029231,-0.85780752,1.5704582
1663,3.3545396,0.88018048,-0.76617771,1.5539649
1664,3.3565396,0.98891449,-0.70692378,1.4977652
1665,3.3585392,1.0225121,-0.69959342,1.4574481
1666,3.3605392,1.0597749,-0.69104129,1.3621532
1667,3.3625384,1.0475576,-0.69165218,1.3108405
1668,3.3645376,0.99319053,-0.70936728,1.2076043
1669,3.3665368,0.94676477,-0.64889163,1.1074224
1670,3.3685359,0.92599535,-0.62934393,1.0616075
1671,3.3705353,0.7934376,-0.61590487,0.97791892
1672,3.3725353,0.73479456,-0.624457,0.95776033
1673,3.3745352,0.64011043,-0.66110891,0.94676477
1674,3.3765352,0.44219008,-0.67332619,0.94615388
1675,3.3785353,0.22960897,-0.67027187,0.94798648
1676,3.3805353,0.050014593,-0.61651576,0.95592773
1677,3.3825361,-0.026343564,-0.59452462,0.96631247
1678,3.384537,-0.10575604,-0.53527069,0.99929917
1679,3.3865379,-0.12347114,-0.51999903,1.0286207
1680,3.3885388,-0.18089247,-0.59391373,1.1000919
1681,3.3905388,-0.2279291,-0.72830409,1.1917217
1682,3.3925389,-0.24747679,-0.82298821,1.2412019
1683,3.3945389,-0.26946792,-0.98608923,1.3548228
1684,3.3965389,-0.26091582,-1.1253664,1.4849371
1685,3.398539,-0.24808764,-1.1736249,1.5515214
1686,3.4005391,-0.15890132,-1.2878567,1.7347809
1687,3.4025382,-0.13080151,-1.3116804,1.7928132
1688,3.4045382,-0.097203933,-1.3275629,1.8465693
1689,3.4065382,-0.036728274,-1.4008667,1.9479729
1690,3.4085382,0.028634308,-1.4442382,2.0567069
1691,3.4105382,0.11049025,-1.4301883,2.1452823
1692,3.4125382,0.14408784,-1.440573,2.1709387
1693,3.4145382,0.18257235,-1.4564555,2.1819344
1694,3.4165382,0.18257235,-1.4711162,2.1764364
1695,3.4185382,0.16730072,-1.5010486,2.1532235
1696,3.4205381,0.15263996,-1.5224289,2.1226804
1697,3.4225385,0.13309227,-1.5291485,2.1049652
1698,3.4245394,0.13614659,-1.5578591,2.0848067
1699,3.4265402,0.12148582,-1.5963436,2.0677025
1700,3.428541,0.10865766,-1.6146696,2.0560961
1701,3.4305416,0.095218621,-1.6238326,2.0689242
1702,3.4325416,0.083612181,-1.6122261,2.1013
1703,3.4345416,0.072005741,-1.6116152,2.1104631
1704,3.4365417,0.042684209,-1.5981762,2.1037436
1705,3.4385415,0.0096974857,-1.5774068,2.0811415
1706,3.4405416,-0.02939789,-1.5859588,2.0451005
1707,3.4425407,-0.055665094,-1.5890132,2.0224984
1708,3.4445399,-0.11491902,-1.5798502,1.969964
1709,3.4465402,-0.11980595,-1.5731307,1.9357556
1710,3.4485402,-0.15157095,-1.5511396,1.8746691
1711,3.4505401,-0.12835807,-1.5089899,1.8245782
1712,3.4525398,-0.11491902,-1.5383114,1.793424
1713,3.4545398,-0.092927873,-1.622,1.7335593
1714,3.4565397,-0.085597493,-1.7356209,1.680414
1715,3.4585397,-0.069714993,-1.7783815,1.6578119
1716,3.4605396,-0.051999904,-1.8748982,1.6419294
1717,3.4625404,-0.061162882,-2.0196731,1.652925
1718,3.4645405,-0.072769322,-2.0880902,1.6645315
1719,3.4665405,-0.088651821,-2.2475259,1.6853008
1720,3.4685405,-0.11552989,-2.3440428,1.6975181
1721,3.4705406,-0.15462527,-2.3703098,1.7066811
1722,3.4725406,-0.17967074,-2.3623686,1.707292
1723,3.4745406,-0.20471622,-2.3446536,1.7146224
1724,3.4765407,-0.20288362,-2.337934,1.7115681
1725,3.4785407,-0.21204659,-2.3086126,1.7103463
1726,3.4805407,-0.19433151,-2.2444715,1.7219528
1727,3.4825402,-0.16256651,-2.2194262,1.7286723
1728,3.4845393,-0.088040955,-2.229811,1.7121789
1729,3.4865385,-0.048334714,-2.229811,1.7030159
1730,3.4885376,0.03596469,-2.229811,1.6932421
1731,3.4905376,0.1007164,-2.2072089,1.6999617
1732,3.4925376,0.14225525,-2.1815524,1.7237854
1733,3.4945376,0.15569428,-2.1503985,1.7402787
1734,3.4965375,0.18012889,-2.0654881,1.7671568
1735,3.4985375,0.18562667,-1.9903517,1.8044195
1736,3.5005375,0.1727985,-1.8748982,1.8447367
1737,3.5025383,0.13736832,-1.8260289,1.8765017
1738,3.5045392,0.072616607,-1.7826575,1.9052123
1739,3.5065388,-0.11858422,-1.7594446,1.9198731
1740,3.5085388,-0.13019066,-1.5743525,1.8490127
1741,3.5105388,-0.082543164,-1.4625641,1.7915914
1742,3.5125391,-0.076434515,-1.4613423,1.7787633
1743,3.5145391,-0.019013181,-1.3837625,1.7665459
1744,3.5165392,0.044516806,-1.345278,1.753107
1745,3.5185392,0.14958562,-1.2267702,1.7219528
1746,3.5205392,0.22533292,-1.158964,1.7060703
1747,3.5225384,0.24732406,-1.1418599,1.7158442
1748,3.5245375,0.26076311,-1.0526736,1.7518852
1749,3.5265367,0.28825203,-0.98670006,1.8068631
1750,3.5285358,0.30230194,-0.93905258,1.8276324
1751,3.5305349,0.34567338,-0.86758137,1.8648952
1752,3.5325348,0.38721222,-0.78206021,1.870393
1753,3.5345348,0.42019892,-0.74235398,1.8600084
1754,3.5365348,0.50022227,-0.67271537,1.8203021
1755,3.5385347,0.59001946,-0.59941155,1.7610482
1756,3.5405347,0.69081223,-0.55542922,1.6993507
1757,3.5425356,0.73968148,-0.51999903,1.6681967
1758,3.5445365,0.83619815,-0.45158213,1.6083318
1759,3.5465374,0.88995433,-0.41615194,1.5832864
1760,3.5485383,1.0096838,-0.30925053,1.5289193
1761,3.5505384,1.1269701,-0.19257528,1.4824936
1762,3.5525384,1.1825588,-0.12843442,1.4598916
1763,3.5545384,1.3145057,0.018784106,1.4244614
1764,3.5565385,1.4501177,0.13607024,1.4061354
1765,3.5585385,1.5197563,0.20082195,1.4018594
1766,3.5605385,1.6724727,0.31444287,1.403692
1767,3.5625376,1.8166369,0.43172902,1.4226288
1768,3.5645367,1.8777235,0.50136763,1.4269048
1769,3.5665358,1.970575,0.62964934,1.4317918
1770,3.568535,2.0426571,0.74937892,1.4244614
1771,3.5705341,2.0841959,0.82940227,1.4195745
1772,3.5725341,2.0866394,0.85444778,1.4116333
1773,3.574534,2.0713677,0.88376927,1.4055246
1774,3.576534,2.0567069,0.88010412,1.4024702
1775,3.578534,2.0096703,0.83123487,1.3774247
1776,3.5805339,1.9601902,0.74388117,1.3346642
1777,3.5825348,1.9357556,0.68768156,1.3065645
1778,3.5845356,1.8728365,0.590554,1.231428
1779,3.5865364,1.8166369,0.49648073,1.1367439
1780,3.5885373,1.7867045,0.45249844,1.0823768
1781,3.5905382,1.7286723,0.35475999,0.9748646
1782,3.5925382,1.6975181,0.25152376,0.85330236
1783,3.5945383,1.6859118,0.20204368,0.7952702
1784,3.5965383,1.6590337,0.14462234,0.70608389
1785,3.5985383,1.5814538,0.066431597,0.64560819
1786,3.6005384,1.4739414,0.150731,0.54664803
1787,3.6025375,1.4519503,0.28389964,0.51793736
1788,3.6045378,1.3236686,0.64186668,0.58940858
1789,3.6065378,1.2564734,0.84956086,0.7018078
1790,3.6085378,1.1202505,1.3046554,1.0878747
1791,3.6105377,0.98280585,1.7652478,1.580232
1792,3.6125377,0.92049754,1.9576705,1.8148043
1793,3.6145377,0.81176353,2.2356141,2.2454643
1794,3.6165376,0.76778126,2.2832615,2.6284769
1795,3.6185376,0.77205729,2.227062,2.7756953
1796,3.6205377,0.77694422,1.9869919,2.9497919
1797,3.6225386,0.8087092,1.6424639,2.9210813
1798,3.6245395,0.81909394,1.446987,2.8441122
1799,3.6265404,0.81542873,0.99372506,2.5906031
1800,3.6285413,0.79465932,0.52396965,2.2833378
1801,3.6305422,0.76167262,0.10125092,1.9785162
1802,3.6325422,0.73723799,-0.089949906,1.8447367
1803,3.6345423,0.68287098,-0.38011089,1.6376534
1804,3.6365422,0.65171689,-0.49067751,1.5588517
1805,3.6385423,0.57658041,-0.6556111,1.4360678
1806,3.6405422,0.5069418,-0.74846262,1.3358859
1807,3.6425414,0.47334421,-0.77350813,1.2821298
1808,3.6445406,0.42203152,-0.7845037,1.1654545
1809,3.6465406,0.40370557,-0.77961677,1.1068115
1810,3.6485411,0.38293615,-0.74357569,0.97791892
1811,3.6505411,0.38110355,-0.69959342,0.83314383
1812,3.652541,0.38965568,-0.67027187,0.75739652
1813,3.654541,0.42203152,-0.6030767,0.62056273
1814,3.656541,0.45685086,-0.54260105,0.50816351
1815,3.6585409,0.47212249,-0.50778174,0.46234864
1816,3.6605409,0.50449836,-0.41370848,0.37866008
1817,3.6625417,0.51182872,-0.3923282,0.36399934
1818,3.6645414,0.51976997,-0.37583485,0.35789067
1819,3.6665414,0.53748506,-0.34712419,0.35056028
1820,3.6685414,0.55336756,-0.31780264,0.34506249
1821,3.6705414,0.57352608,-0.28420505,0.32734743
1822,3.6725415,0.58391082,-0.26526824,0.31696269
1823,3.6745415,0.5985716,-0.2218968,0.29069549
1824,3.6765415,0.60406935,-0.19624045,0.2766456
1825,3.6785416,0.60773456,-0.13271047,0.2485458
1826,3.6805416,0.60529113,-0.056963183,0.22533292
1827,3.6825407,0.59918243,-0.0099265603,0.2186134
1828,3.6845398,0.58329993,0.08353582,0.20273091
1829,3.6865389,0.55703276,0.18860464,0.18012889
1830,3.688538,0.54053938,0.24358252,0.17157678
1831,3.690538,0.50999612,0.38713586,0.14164437
1832,3.6925379,0.47578767,0.43478334,0.11476631
1833,3.6945379,0.45990518,0.4812091,0.10010554
1834,3.6965379,0.44280094,0.54473907,0.068340547
1835,3.6985379,0.43424883,0.5862779,0.034132097
1836,3.7005379,0.42386413,0.6217081,-0.0074067409
1837,3.7025386,0.41592288,0.63759059,-0.02939789
1838,3.7045394,0.39332086,0.67179906,-0.074601918
1839,3.7065394,0.38415787,0.68890327,-0.097203933
1840,3.7085388,0.35483634,0.73166382,-0.13691017
1841,3.7105388,0.31574097,0.78297651,-0.1698969
1842,3.7125388,0.29313895,0.81168717,-0.18883371
1843,3.7145389,0.24243714,0.8691085,-0.22059871
1844,3.7165389,0.18868101,0.92286468,-0.26274842
1845,3.7185389,0.16241379,0.94424498,-0.28046352
1846,3.720539,0.10865766,0.99311417,-0.32566753
1847,3.7225381,0.051236324,1.0242683,-0.37270415
1848,3.7245373,0.026190847,1.0407617,-0.39591703
1849,3.7265365,-0.025121834,1.0493138,-0.44112107
1850,3.7285356,-0.077656247,1.048092,-0.48021644
1851,3.7305356,-0.11430816,1.0511464,-0.51381403
1852,3.7325355,-0.13691017,1.0413725,-0.53152913
1853,3.7345355,-0.18944459,1.0138836,-0.55657458
1854,3.7365355,-0.21815525,0.99922282,-0.56512672
1855,3.7385354,-0.28168523,0.95524055,-0.58345264
1856,3.7405354,-0.35987598,0.90270609,-0.58833957
1857,3.7425362,-0.40141481,0.87582803,-0.59017217
1858,3.7445371,-0.49060115,0.81718498,-0.59139389
1859,3.746538,-0.59933513,0.77686787,-0.59750259
1860,3.7485389,-0.67630416,0.77992219,-0.59872431
1861,3.7505389,-0.91576338,0.86666507,-0.60116774
1862,3.752539,-1.1643856,0.96440351,-0.6146068
1863,3.754539,-1.2474632,0.9607383,-0.63110018
1864,3.756539,-1.3274865,0.85383689,-0.67569333
1865,3.7585391,-1.3348169,0.69745541,-0.72578424
1866,3.7605391,-1.3232105,0.55939984,-0.74655366
1867,3.7625385,-1.3232105,0.49037206,-0.73983419
1868,3.7645376,-1.3348169,0.42012256,-0.7239517
1869,3.7665368,-1.3494776,0.28512135,-0.65553474
1870,3.7685359,-1.3042736,0.25641069,-0.49182287
1871,3.770535,-1.1509465,0.41218132,-0.22976169
1872,3.7725348,-1.058095,0.53130007,-0.097203933
1873,3.7745347,-0.89621568,0.77686787,0.12148582
1874,3.7765347,-0.82840961,0.89537573,0.19417879
1875,3.7785347,-0.70929092,1.1158981,0.27786732
1876,3.7805347,-0.61277419,1.2997686,0.30169109
1877,3.7825356,-0.56757015,1.379181,0.2943607
1878,3.784537,-0.48388162,1.5184582,0.2570979
1879,3.7865378,-0.39652792,1.6223054,0.20150918
1880,3.7885387,-0.35682166,1.6577356,0.16791159
1881,3.7905387,-0.24258986,1.7212656,0.068951413
1882,3.7925387,-0.20654881,1.7249308,0.039019018
1883,3.7945387,-0.17111863,1.7157677,0.018249599
1884,3.7965387,-0.097203933,1.682781,-0.015958855
1885,3.7985387,-0.025732698,1.6216946,-0.031841353
1886,3.8005387,0.045738537,1.5447255,-0.044058654
1887,3.8025379,0.08239045,1.5031867,-0.046502117
1888,3.804537,0.15447254,1.4133894,-0.048945576
1889,3.806537,0.18929186,1.3718506,-0.054443367
1890,3.8085369,0.26259568,1.2851077,-0.066660672
1891,3.8105369,0.33528867,1.2136365,-0.081932299
1892,3.8125369,0.36949712,1.1775955,-0.08743009
1893,3.8145368,0.44157922,1.1061243,-0.10147999
1894,3.8165371,0.50327659,1.0407617,-0.11430816
1895,3.818537,0.53626335,1.0083858,-0.12286028
1896,3.820537,0.61873013,0.90026265,-0.13385585
1897,3.8225378,0.64805168,0.86238903,-0.13324498
1898,3.8245387,0.67187542,0.82023931,-0.13019066
1899,3.8265396,0.72013378,0.7267769,-0.12713633
1900,3.8285405,0.76106173,0.6253733,-0.11736248
1901,3.8305414,0.80748749,0.51969361,-0.10819951
1902,3.8325413,0.8245917,0.46410486,-0.10025826
1903,3.8345413,0.86979574,0.35964692,-0.091706142
1904,3.8365414,0.88873255,0.3126103,-0.08743009
1905,3.8385414,0.92966056,0.21548271,-0.088651821
1906,3.8405413,0.96386898,0.14828753,-0.098425664
1907,3.8425404,0.96997768,0.1244638,-0.10453431
1908,3.844539,0.98341668,0.073151112,-0.12469286
1909,3.8465389,0.98769271,0.021227567,-0.14668402
1910,3.8485389,0.98769271,-0.00870483,-0.15645786
1911,3.8505389,0.98463839,-0.078343466,-0.15767959
1912,3.8525389,0.97242111,-0.1498147,-0.15279266
1913,3.8545389,0.96814507,-0.18341228,-0.14851661
1914,3.8565389,0.94737566,-0.25060746,-0.14668402
1915,3.8585389,0.92355192,-0.31108314,-0.14546229
1916,3.8605389,0.88079131,-0.35201108,-0.14668402
1917,3.8625397,0.85452414,-0.3642284,-0.14240795
1918,3.8645406,0.79404849,-0.38255435,-0.13446671
1919,3.8665406,0.76594865,-0.38316521,-0.13141239
1920,3.8685406,0.70791644,-0.37583485,-0.13019066
1921,3.8705407,0.65049511,-0.3575089,-0.12530373
1922,3.8725407,0.62178445,-0.34834591,-0.11919508
1923,3.8745407,0.58024561,-0.33185256,-0.11064297
1924,3.8765405,0.55153495,-0.31658092,-0.10636691
1925,3.8785405,0.5399285,-0.30558532,-0.10514518
1926,3.8805406,0.52954382,-0.28237244,-0.10331258
1927,3.8825397,0.5283221,-0.27320948,-0.097814798
1928,3.8845389,0.53198725,-0.24877487,-0.095371336
1929,3.886538,0.5417611,-0.22556199,-0.09903653
1930,3.8885371,0.54481542,-0.21395555,-0.097814798
1931,3.890537,0.55764359,-0.1516473,-0.10270172
1932,3.892537,0.56314141,-0.13637567,-0.11491902
1933,3.894537,0.5808565,-0.099112883,-0.1381319
1934,3.896537,0.59124118,-0.078954332,-0.14485142
1935,3.8985369,0.62667137,-0.025198191,-0.16195565
1936,3.9005369,0.67004281,0.023671029,-0.18516853
1937,3.9025378,0.69020134,0.047494773,-0.19860756
1938,3.9045387,0.7231881,0.082314089,-0.22731823
1939,3.9065388,0.72929674,0.098807454,-0.23770294
1940,3.9085388,0.72746414,0.12324207,-0.23220515
1941,3.9105388,0.71035993,0.12690726,-0.20288362
1942,3.9125389,0.69814259,0.1244638,-0.18516853
1943,3.9145389,0.67492974,0.12507465,-0.15157095
1944,3.9165389,0.64072126,0.12751812,-0.11614075
1945,3.9185389,0.6120106,0.11896601,-0.095982201
1946,3.9205389,0.58391082,0.10247265,-0.090484418
1947,3.9225381,0.57108265,0.090866208,-0.08743009
1948,3.9245372,0.5613088,0.079259768,-0.080710568
1949,3.9265363,0.5417611,0.04932737,-0.068493262
1950,3.9285354,0.52465689,0.021838432,-0.061162882
1951,3.9305345,0.5087744,0.0047342055,-0.061162882
1952,3.9325345,0.50999612,-0.0099265603,-0.055054229
1953,3.9345344,0.51182872,-0.03191771,-0.040393464
1954,3.9365344,0.51121783,-0.040469822,-0.02939789
1955,3.9385344,0.50755268,-0.053908858,-0.011682798
1956,3.9405343,0.510607,-0.064293563,0.0090866201
1957,3.9425352,0.50999612,-0.069180489,0.016417004
1958,3.944536,0.50816351,-0.071623951,0.032910366
1959,3.9465369,0.510607,-0.075289145,0.046349399
1960,3.9485377,0.50999612,-0.079565197,0.052458052
1961,3.9505378,0.50022227,-0.085062988,0.068340547
1962,3.9525382,0.49594623,-0.086284719,0.06650795
1963,3.9545382,0.49289191,-0.080176063,0.068340547
1964,3.9565382,0.48678324,-0.072845683,0.068340547
1965,3.9585383,0.48556152,-0.066737026,0.07078401
1966,3.9605383,0.4892267,-0.064293563,0.073227473
1967,3.9625374,0.49044845,-0.06307184,0.074449204
1968,3.9645365,0.48800498,-0.074678279,0.071394876
1969,3.9665356,0.4892267,-0.078954332,0.068340547
1970,3.9685347,0.49838969,-0.080176063,0.080557853
1971,3.9705338,0.50755268,-0.072845683,0.098883815
1972,3.972534,0.5087744,-0.076510869,0.10377073
1973,3.9745339,0.49900055,-0.083841257,0.11476631
1974,3.9765339,0.4977788,-0.094225965,0.1324814
1975,3.9785339,0.50266576,-0.091782503,0.14530957
1976,3.9805339,0.51488304,-0.080786929,0.17585284
1977,3.9825348,0.51915908,-0.069791354,0.19478965
1978,3.9845357,0.52160257,-0.064293563,0.19967657
1979,3.9865366,0.51915908,-0.046578474,0.2045635
1980,3.9885375,0.50388747,-0.025198191,0.2045635
1981,3.9905385,0.48861584,-0.017256944,0.20028745
1982,3.9925382,0.48128545,-0.021532999,0.20028745
1983,3.9945383,0.47639853,-0.032528576,0.19601138
1984,3.9965383,0.48067459,-0.03924809,0.19906572
1985,3.9985383,0.47945285,-0.054519724,0.2008983
1986,4.0005384,0.47945285,-0.077121735,0.19662225
1987,4.0025375,0.47517681,-0.086895578,0.19845484
1988,4.0045375,0.47578767,-0.11377365,0.20395264
1989,4.0065375,0.48556152,-0.13026701,0.19967657
1990,4.0085375,0.49350277,-0.13698652,0.19417879
1991,4.0105375,0.50572008,-0.14492778,0.19417879
1992,4.0125374,0.51488304,-0.14737125,0.19662225
1993,4.0145374,0.5222134,-0.14614952,0.19845484
1994,4.0165374,0.52771121,-0.15347989,0.21006128
1995,4.0185373,0.5222134,-0.17730364,0.22960897
1996,4.0205373,0.51915908,-0.20784689,0.25465444
1997,4.0225376,0.51732653,-0.22434026,0.26870435
1998,4.0245384,0.51243961,-0.25305092,0.28764117
1999,4.0265393,0.50816351,-0.26099217,0.2943607
2000,4.0285402,0.50572008,-0.26710084,0.30841058
2001,4.0305411,0.50388747,-0.25427267,0.32612568
2002,4.032541,0.50266576,-0.24694228,0.33528867
2003,4.034541,0.50633091,-0.21884248,0.35422549
2004,4.036541,0.51182872,-0.18585575,0.36338845
2005,4.038541,0.51671565,-0.16875152,0.36583191
2006,4.040541,0.52771121,-0.13454308,0.36888626
2007,4.0425401,0.53198725,-0.11560625,0.37194058
2008,4.0445392,0.54115027,-0.088728175,0.37438405
2009,4.0465392,0.54725891,-0.056352317,0.37438405
2010,4.0485392,0.55214584,-0.039858956,0.3731623
2011,4.0505391,0.56680661,0.0096211275,0.3749949
2012,4.0525394,0.57108265,0.027947085,0.37438405
2013,4.0545393,0.57596958,0.03772093,0.37682751
2014,4.0565393,0.58329993,0.067042463,0.38049269
2015,4.0585394,0.59307379,0.094531395,0.38354701
2016,4.0605393,0.59918243,0.12202033,0.38354701
2017,4.0625402,0.59979331,0.13423763,0.38476875
2018,4.0645402,0.60529113,0.16172658,0.38782308
2019,4.0665403,0.60651284,0.17394388,0.38965568
2020,4.0685403,0.6138432,0.19776763,0.3945426
2021,4.0705403,0.6162867,0.21914791,0.39881864
2022,4.0725404,0.62117362,0.22770002,0.3994295
2023,4.0745404,0.62911487,0.24358252,0.40248385
2024,4.0765404,0.63644522,0.25152376,0.40798163
2025,4.0785404,0.63827783,0.25518894,0.40859249
2026,4.0805404,0.651106,0.2576324,0.40920335
2027,4.0825401,0.65599293,0.25946501,0.4104251
2028,4.0845392,0.65904725,0.25824329,0.40920335
2029,4.0865383,0.66576678,0.26129761,0.40798163
2030,4.0885374,0.67431885,0.26068676,0.40798163
2031,4.0905374,0.68042755,0.25213462,0.40737075
2032,4.0925374,0.68470359,0.25030205,0.40614903
2033,4.0945373,0.6840927,0.23808473,0.40553817
2034,4.0965373,0.68531448,0.23136522,0.40798163
2035,4.0985373,0.6859253,0.21365012,0.40798163
2036,4.1005372,0.68348187,0.1965459,0.40981421
2037,4.1025381,0.68287098,0.1910481,0.41225767
2038,4.104539,0.67798406,0.17821993,0.4171446
2039,4.106539,0.67248631,0.16294831,0.42080981
2040,4.108539,0.6688211,0.15561792,0.42447498
2041,4.1105391,0.65904725,0.1385137,0.42691845
2042,4.1125391,0.64744079,0.12324207,0.43485969
2043,4.1145391,0.64011043,0.11835514,0.43302709
2044,4.1165392,0.62544966,0.098196588,0.43424883
2045,4.1185392,0.61017799,0.082924955,0.43424883
2046,4.1205391,0.59246296,0.067042463,0.43180537
2047,4.1225382,0.58513254,0.059712078,0.42814019
2048,4.1245373,0.56619573,0.041996986,0.42080981
2049,4.1265364,0.55520016,0.034666602,0.4171446
2050,4.1285355,0.53259814,0.020616703,0.40370557
2051,4.1305355,0.51182872,0.0016798794,0.38843393
2052,4.1325355,0.49900055,-0.0050396384,0.38049269
2053,4.1345355,0.47395507,-0.021532999,0.36338845
2054,4.1365355,0.45379651,-0.042913284,0.34750596
2055,4.1385355,0.43791401,-0.057574049,0.33834299
2056,4.1405356,0.41775545,-0.083230391,0.3206279
2057,4.1425365,0.39576432,-0.11560625,0.3029128
2058,4.1445374,0.38599047,-0.13332134,0.29558241
2059,4.1465383,0.36827537,-0.17424931,0.28275424
2060,4.1485392,0.34628424,-0.21212296,0.27114782
2061,4.1505392,0.33101261,-0.25121832,0.26015225
2062,4.152539,0.32307136,-0.27015516,0.2503784
2063,4.154539,0.30841058,-0.31047225,0.23449589
2064,4.156539,0.3010802,-0.33124167,0.22533292
2065,4.158539,0.28703031,-0.36850446,0.20273091
2066,4.160539,0.27298039,-0.40637809,0.18135062
2067,4.1625381,0.26565003,-0.42409319,0.16974418
2068,4.1645373,0.25465444,-0.46318856,0.1465313
2069,4.1665364,0.24793494,-0.48395798,0.134314
2070,4.1685355,0.23999368,-0.52488595,0.10682506
2071,4.1705346,0.23021984,-0.56642479,0.084223047
2072,4.1725345,0.22655465,-0.60674191,0.070173144
2073,4.1745345,0.21616994,-0.62567872,0.046349399
2074,4.1765345,0.20761782,-0.66477412,0.02069306
2075,4.1785344,0.20150918,-0.68310004,0.012751812
2076,4.1805344,0.18379408,-0.74846262,-0.022678372
2077,4.1825349,0.17646369,-0.77045381,-0.032452215
2078,4.1845358,0.16913332,-0.79488838,-0.042226061
2079,4.1865367,0.15202908,-0.83276206,-0.057497691
2080,4.1885376,0.13797919,-0.86147273,-0.072158456
2081,4.1905377,0.11476631,-0.87063569,-0.091095276
2082,4.1925377,0.102549,-0.87307918,-0.097203933
2083,4.1945375,0.076892659,-0.86086184,-0.11125384
2084,4.1965375,0.062231898,-0.85108799,-0.11980595
2085,4.1985375,0.031077769,-0.82848597,-0.13141239
2086,4.2005375,-0.0049632802,-0.79672098,-0.13935363
2087,4.2025366,-0.022067508,-0.78328198,-0.14485142
2088,4.2045365,-0.061773747,-0.7454083,-0.15340354
2089,4.2065365,-0.10147999,-0.70692378,-0.1643991
2090,4.2085365,-0.12041681,-0.69165218,-0.16867517
2091,4.2105364,-0.18272507,-0.64278293,-0.17783815
2092,4.2125364,-0.1998293,-0.62995476,-0.1821142
2093,4.2145364,-0.21998784,-0.61468315,-0.18944459
2094,4.2165364,-0.26030496,-0.59208113,-0.20410535
2095,4.2185365,-0.30184379,-0.5719226,-0.21937698
2096,4.2205365,-0.33971745,-0.5523749,-0.23281601
2097,4.2225374,-0.35926512,-0.54260105,-0.24686591
2098,4.2245383,-0.39347357,-0.52366424,-0.26702446
2099,4.2265392,-0.41241041,-0.51266867,-0.27740917
2100,4.2285401,-0.44173193,-0.49800789,-0.30062205
2101,4.230541,-0.46922088,-0.48945579,-0.32016975
2102,4.232541,-0.48327076,-0.48823404,-0.32811099
2103,4.234541,-0.51503575,-0.49617529,-0.34216088
2104,4.236541,-0.55229855,-0.50228393,-0.35193473
2105,4.238541,-0.57123536,-0.51083606,-0.35498905
2106,4.240541,-0.6164394,-0.52549684,-0.35865426
2107,4.2425405,-0.66836292,-0.54321194,-0.36231944
2108,4.2445396,-0.69951707,-0.55176401,-0.36537376
2109,4.2465399,-0.76549053,-0.56703568,-0.36903897
2110,4.2485398,-0.83574003,-0.57803124,-0.37148243
2111,4.2505398,-0.90782213,-0.58780509,-0.38125628
2112,4.2525398,-0.94325233,-0.59269202,-0.38614321
2113,4.25454,-1.0183887,-0.60063326,-0.39591703
2114,4.2565399,-1.0501537,-0.60246587,-0.40141481
2115,4.2585399,-1.1197923,-0.60552019,-0.41607559
2116,4.2605399,-1.1821007,-0.61101794,-0.42951462
2117,4.2625408,-1.2102004,-0.61529404,-0.43440154
2118,4.2645408,-1.2584587,-0.62873304,-0.45089492
2119,4.2665409,-1.298165,-0.65438938,-0.47288606
2120,4.2685409,-1.3183236,-0.67088276,-0.48021644
2121,4.2705409,-1.3537537,-0.7099781,-0.4985424
2122,4.2725412,-1.3873513,-0.75334954,-0.51625746
2123,4.2745412,-1.4075099,-0.77350813,-0.52114439
2124,4.2765412,-1.4404966,-0.8174904,-0.53030741
2125,4.2785412,-1.4771485,-0.85841841,-0.53947037
2126,4.2805412,-1.5217416,-0.88835078,-0.54069209
2127,4.2825402,-1.5437329,-0.90484416,-0.5443573
2128,4.2845394,-1.5730543,-0.91095281,-0.54680073
2129,4.2865384,-1.6274214,-0.92988962,-0.54924423
2130,4.2885376,-1.6891187,-0.93721998,-0.55168766
2131,4.2905376,-1.7569247,-0.94149607,-0.55596375
2132,4.2925376,-1.7941875,-0.93599826,-0.55535287
2133,4.2945367,-1.8668805,-0.91278541,-0.5577963
2134,4.2965358,-1.9084194,-0.90056807,-0.5596289
2135,4.2985358,-1.9866102,-0.86513788,-0.56085068
2136,4.3005358,-2.0660226,-0.82359904,-0.56023979
2137,4.3025366,-2.1466568,-0.77350813,-0.55718547
2138,4.3045375,-2.1881957,-0.7472409,-0.55596375
2139,4.3065372,-2.2657754,-0.69104129,-0.55535287
2140,4.3085372,-2.3036492,-0.66110891,-0.55474198
2141,4.3105372,-2.4074962,-0.55909443,-0.55290943
2142,4.3125373,-2.4386504,-0.52366424,-0.55107683
2143,4.3145373,-2.4691937,-0.48517972,-0.54863334
2144,4.3165373,-2.521728,-0.41065416,-0.54069209
2145,4.3185374,-2.5730407,-0.33001995,-0.53275084
2146,4.3205374,-2.6188557,-0.25244007,-0.52358788
2147,4.3225365,-2.6402359,-0.21273382,-0.51931185
2148,4.3245356,-2.680553,-0.13209961,-0.50953799
2149,4.3265347,-2.6994898,-0.0936151,-0.50281847
2150,4.3285338,-2.730644,-0.022143865,-0.49365547
2151,4.3305338,-2.7569113,0.040164389,-0.48021644
2152,4.3325338,-2.7660742,0.074983709,-0.47166434
2153,4.3345337,-2.7801242,0.12996158,-0.45394924
2154,4.3365337,-2.7898979,0.1769982,-0.42951462
2155,4.3385337,-2.7850111,0.19043724,-0.4197408
2156,4.3405337,-2.7837894,0.22159137,-0.38858664
2157,4.3425343,-2.7813458,0.22831088,-0.37575847
2158,4.3445352,-2.7782915,0.22892176,-0.36598465
2159,4.3465361,-2.7660742,0.22036964,-0.35254562
2160,4.348537,-2.7471373,0.19837849,-0.34216088
2161,4.350537,-2.7165942,0.16844609,-0.34216088
2162,4.3525366,-2.6964355,0.15500705,-0.34216088
2163,4.3545375,-2.6518424,0.12690726,-0.35132387
2164,4.3565384,-2.6261861,0.11591168,-0.35865426
2165,4.3585384,-2.5663211,0.10186178,-0.37087157
2166,4.3605384,-2.5015695,0.098807454,-0.38858664
2167,4.3625375,-2.4661393,0.10308351,-0.39713877
2168,4.3645367,-2.3903921,0.11163563,-0.41912991
2169,4.3665358,-2.3054819,0.13912456,-0.43989933
2170,4.3685349,-2.2608886,0.15134187,-0.45028403
2171,4.3705342,-2.1704805,0.17455475,-0.4741078
2172,4.3725341,-2.0745747,0.19593503,-0.49793154
2173,4.3745341,-2.0275381,0.20448714,-0.51381403
2174,4.3765341,-1.9304105,0.22036964,-0.54313558
2175,4.378534,-1.8363373,0.22464569,-0.577344
2176,4.380534,-1.7447075,0.22342396,-0.61094159
2177,4.3825348,-1.7043904,0.21670444,-0.63232189
2178,4.3845357,-1.6225344,0.1928807,-0.67263901
2179,4.3865366,-1.5840499,0.18127427,-0.69585186
2180,4.3885375,-1.515633,0.13973543,-0.73983419
2181,4.3905375,-1.4459944,0.082314089,-0.78870338
2182,4.3925376,-1.4123968,0.040164389,-0.81435972
2183,4.3945376,-1.3445908,-0.064904429,-0.86139637
2184,4.3965376,-1.2792282,-0.20479257,-0.90049171
2185,4.3985377,-1.2499067,-0.28481591,-0.91820681
2186,4.4005381,-1.1918745,-0.45646906,-0.95913482
2187,4.4025376,-1.1478921,-0.63789606,-0.99945188
2188,4.4045386,-1.1295662,-0.72524977,-1.0244974
2189,4.4065386,-1.1057425,-0.90667677,-1.0831405
2190,4.4085385,-1.1026881,-1.0752755,-1.1472813
2191,4.4105385,-1.1265118,-1.218218,-1.2059244
2192,4.4125388,-1.1466705,-1.2786937,-1.2364676
2193,4.4145388,-1.1979831,-1.3923146,-1.2841151
2194,4.4165388,-1.2291372,-1.4491251,-1.3030519
2195,4.4185388,-1.2883911,-1.5560265,-1.3323735
2196,4.420538,-1.3470342,-1.6476563,-1.3531429
2197,4.4225389,-1.3739123,-1.6904168,-1.3598624
2198,4.4245398,-1.4233924,-1.7765489,-1.3781884
2199,4.4265407,-1.4753159,-1.8791742,-1.3904057
2200,4.4285416,-1.5040265,-1.9359847,-1.4014013
2201,4.4305424,-1.5577828,-2.056936,-1.4233924
2202,4.4325424,-1.6121497,-2.1675026,-1.4417183
2203,4.4345424,-1.6378061,-2.2157609,-1.4472162
2204,4.4365421,-1.6866753,-2.297617,-1.4466052
2205,4.4385421,-1.7263815,-2.3538165,-1.4349989
2206,4.4405421,-1.7575357,-2.3898575,-1.4044555
2207,4.4425412,-1.7728072,-2.3965771,-1.3867404
2208,4.4445403,-1.7844137,-2.4039075,-1.3641385
2209,4.4465403,-1.8045723,-2.3990204,-1.3219887
2210,4.4485403,-1.8180113,-2.3953552,-1.2786173
2211,4.4505402,-1.8265635,-2.3806946,-1.2352459
2212,4.4525402,-1.8290069,-2.3733642,-1.2175308
2213,4.4545402,-1.8283961,-2.3587034,-1.1814897
2214,4.4565401,-1.8290069,-2.351984,-1.161942
2215,4.4585401,-1.8259525,-2.3391557,-1.1289554
2216,4.4605396,-1.8167896,-2.3293819,-1.1008556
2217,4.4625405,-1.8125136,-2.3263276,-1.0855839
2218,4.4645395,-1.8051832,-2.3226624,-1.0617602
2219,4.4665395,-1.7923549,-2.3293819,-1.0403799
2220,4.4685395,-1.7899115,-2.3348796,-1.0336604
2221,4.4705396,-1.76059,-2.3415992,-1.0159453
2222,4.4725397,-1.7526487,-2.3415992,-1.0092257
2223,4.4745397,-1.7416532,-2.3403776,-0.99945188
2224,4.4765397,-1.7227163,-2.3348796,-0.98845631
2225,4.4785397,-1.7080556,-2.3080015,-0.98051506
2226,4.4805405,-1.6933948,-2.2676845,-0.97379553
2227,4.4825396,-1.6836209,-2.2426391,-0.97379553
2228,4.4845387,-1.6622407,-2.1998785,-0.97257382
2229,4.4865378,-1.6542995,-2.1803308,-0.96768689
2230,4.4885369,-1.6347518,-2.1528418,-0.96341085
2231,4.4905369,-1.6133715,-2.1302397,-0.96035653
2232,4.4925369,-1.6023759,-2.1210768,-0.9560805
2233,4.4945369,-1.5791631,-2.1149683,-0.95119357
2234,4.4965372,-1.5498415,-2.0996966,-0.94691747
2235,4.4985372,-1.533959,-2.0899227,-0.93592191
2236,4.5005379,-1.4973071,-2.0538816,-0.92248291
2237,4.5025388,-1.4502704,-2.0496056,-0.90721124
2238,4.5045397,-1.4282793,-2.0441079,-0.89988089
2239,4.5065397,-1.384297,-2.0318906,-0.88216579
2240,4.5085397,-1.3403147,-2.0135646,-0.87361366
2241,4.5105398,-1.2993867,-1.9879082,-0.86811584
2242,4.5125394,-1.2767848,-1.9671388,-0.86506152
2243,4.5145394,-1.2401328,-1.9286543,-0.8620072
2244,4.5165394,-1.2224177,-1.9042196,-0.86078548
2245,4.5185405,-1.1869875,-1.8486309,-0.85101163
2246,4.5205405,-1.157666,-1.789377,-0.84490299
2247,4.5225396,-1.1423944,-1.7594446,-0.84245956
2248,4.5245387,-1.1124619,-1.7075211,-0.83390743
2249,4.5265378,-1.0837513,-1.6647605,-0.8290205
2250,4.5285369,-1.0690905,-1.648878,-0.82535529
2251,4.530537,-1.0385473,-1.6274977,-0.82352269
2252,4.532537,-1.0067823,-1.6195564,-0.82169014
2253,4.5345369,-0.99028891,-1.6177239,-0.81985754
2254,4.5365369,-0.9560805,-1.6183348,-0.82413357
2255,4.5385369,-0.92614806,-1.617113,-0.82963139
2256,4.5405369,-0.89438307,-1.5890132,-0.8271879
2257,4.5425382,-0.8797223,-1.5700763,-0.82535529
2258,4.5445391,-0.84795731,-1.5212072,-0.81252712
2259,4.54654,-0.83329654,-1.4998269,-0.80825108
2260,4.5485409,-0.80092067,-1.4643967,-0.79725552
2261,4.5505409,-0.77037746,-1.4326317,-0.78870338
2262,4.5525409,-0.75327319,-1.4210253,-0.78137302
2263,4.554541,-0.72211909,-1.3978124,-0.77159917
2264,4.556541,-0.68729979,-1.3807082,-0.76121444
2265,4.5585409,-0.66775209,-1.372156,-0.75449497
2266,4.5605403,-0.63048929,-1.3507757,-0.74044502
2267,4.5625394,-0.61155248,-1.3379476,-0.73250377
2268,4.5645385,-0.56695932,-1.3153456,-0.71662128
2269,4.5665376,-0.52053356,-1.2903001,-0.69890618
2270,4.5685367,-0.4985424,-1.2768611,-0.69401926
2271,4.5705358,-0.42035165,-1.2328788,-0.66958469
2272,4.5725362,-0.39347357,-1.2127203,-0.65981084
2273,4.5745362,-0.36537376,-1.1742357,-0.6518696
2274,4.5765363,-0.30734158,-1.154688,-0.63354361
2275,4.5785351,-0.24930938,-1.1088731,-0.60971987
2276,4.5805352,-0.18577939,-1.0642799,-0.58467442
2277,4.5825359,-0.15706873,-1.0398453,-0.57123536
2278,4.5845368,-0.097203933,-0.98853266,-0.54313558
2279,4.5865377,-0.068493262,-0.96715242,-0.52969652
2280,4.5885386,-0.0061850105,-0.91461802,-0.49609894
2281,4.5905385,0.051236324,-0.86391616,-0.45761442
2282,4.5925385,0.081779584,-0.83764899,-0.43867761
2283,4.5945385,0.13553573,-0.78877974,-0.39713877
2284,4.5965385,0.19112447,-0.74174315,-0.35682166
2285,4.5985385,0.21922426,-0.7160868,-0.3366631
2286,4.6005385,0.29741502,-0.65194595,-0.27679831
2287,4.6025372,0.32184961,-0.63056564,-0.25602889
2288,4.6045372,0.34994942,-0.61223972,-0.2364812
2289,4.6065372,0.40004039,-0.57131171,-0.19738583
2290,4.6085371,0.44829872,-0.53588152,-0.15767959
2291,4.6105371,0.49594623,-0.5016731,-0.12163854
2292,4.6125371,0.51976997,-0.48456886,-0.10453431
2293,4.614537,0.56802833,-0.45158213,-0.069714993
2294,4.616537,0.59063035,-0.43264532,-0.053832501
2295,4.618537,0.63766694,-0.40332377,-0.026954429
2296,4.620537,0.68348187,-0.37094793,0.0035888334
2297,4.6225379,0.70852733,-0.35873061,0.016417004
2298,4.6245388,0.75373137,-0.33063081,0.040851612
2299,4.6265397,0.79588103,-0.30314189,0.064675361
2300,4.6285406,0.81726134,-0.29153544,0.074449204
2301,4.6305415,0.85696757,-0.27015516,0.095218621
2302,4.6325416,0.8966738,-0.25121832,0.11293371
2303,4.6345416,0.91377807,-0.23961189,0.11965323
2304,4.6365415,0.9510408,-0.22434026,0.1324814
2305,4.6385415,0.98402756,-0.20906863,0.14530957
2306,4.6405415,1.01396,-0.20173825,0.15874861
2307,4.6425407,1.0280099,-0.19685133,0.16180293
2308,4.6445398,1.0542771,-0.18829921,0.17340937
2309,4.6465398,1.0652727,-0.18402316,0.17768542
2310,4.6485398,1.0884855,-0.18035796,0.18745928
2311,4.6505398,1.1110876,-0.17363845,0.19295706
2312,4.6525398,1.1220831,-0.17241672,0.19295706
2313,4.6545398,1.136133,-0.16630806,0.19601138
2314,4.6565399,1.1489612,-0.15958855,0.19417879
2315,4.6585399,1.1550698,-0.15714508,0.19173533
2316,4.6605399,1.1624002,-0.15042557,0.1905136
2317,4.6625408,1.1678979,-0.14553864,0.1868484
2318,4.6645409,1.1672871,-0.14004086,0.18745928
2319,4.6665409,1.1678979,-0.12904528,0.18196149
2320,4.6685409,1.1654545,-0.11316279,0.18135062
2321,4.6705409,1.1581241,-0.086284719,0.18379408
2322,4.672542,1.1569024,-0.073456548,0.18868101
2323,4.674542,1.1507938,-0.025809057,0.20150918
2324,4.676542,1.1477394,0.0047342055,0.21494821
2325,4.678542,1.1459068,0.065820731,0.24182628
2326,4.6805419,1.136133,0.12690726,0.27175868
2327,4.682541,1.1324677,0.150731,0.28275424
2328,4.6845401,1.122694,0.19349156,0.30474541
2329,4.6865392,1.1165853,0.21365012,0.31451926
2330,4.6885383,1.1007028,0.25396723,0.33589953
2331,4.6905383,1.0933725,0.29672781,0.36033413
2332,4.6925383,1.0829877,0.33154711,0.38415787
2333,4.6945382,1.0811552,0.34926221,0.39698604
2334,4.6965382,1.0835986,0.3736968,0.41347942
2335,4.6985382,1.0884855,0.38591412,0.43424883
2336,4.7005383,1.0976485,0.39874229,0.45379651
2337,4.7025392,1.1062006,0.4176791,0.47212249
2338,4.7045401,1.1416308,0.46960264,0.53137642
2339,4.7065401,1.1550698,0.47754389,0.56069791
2340,4.7085401,1.177061,0.44577891,0.60712367
2341,4.7105402,1.1898892,0.38774672,0.62728226
2342,4.7125402,1.1923326,0.34926221,0.63033658
2343,4.7145401,1.1850022,0.22892176,0.60162592
2344,4.7165401,1.1746175,0.15012014,0.5790239
2345,4.7185401,1.1501828,-0.024587326,0.5264895
2346,4.72054,1.122694,-0.21700987,0.46173778
2347,4.7225391,1.1068115,-0.31719178,0.42997277
2348,4.7245382,1.0805442,-0.50350571,0.3731623
2349,4.7265373,1.0561097,-0.67088276,0.32856914
2350,4.7285364,1.045114,-0.74174315,0.30902144
2351,4.7305365,1.0133491,-0.92805701,0.2448806
2352,4.7325356,0.99991006,-0.98914355,0.21555908
2353,4.7345357,0.98463839,-1.0575604,0.18440494
2354,4.7365357,0.93943441,-1.2029464,0.11049025
2355,4.7385357,0.88140219,-1.3611605,0.035353824
2356,4.7405358,0.80504405,-1.521818,-0.036117408
2357,4.7425366,0.76411605,-1.6036739,-0.067271538
2358,4.7445376,0.66576678,-1.757612,-0.12713633
2359,4.7465384,0.6120106,-1.8241963,-0.14912748
2360,4.7485393,0.50144398,-1.934763,-0.18944459
2361,4.7505393,0.38476875,-1.9940169,-0.21571179
2362,4.7525393,0.32429308,-2.006845,-0.22731823
2363,4.7545393,0.2045635,-1.9872974,-0.24564418
2364,4.7565393,0.087277375,-1.9133826,-0.25480717
2365,4.7585393,0.032910366,-1.8632917,-0.2596941
2366,4.7605392,-0.12102768,-1.6397151,-0.27130052
2367,4.7625383,-0.1643991,-1.5456418,-0.27252227
2368,4.7645374,-0.20899227,-1.4442382,-0.27679831
2369,4.7665365,-0.27496573,-1.2224941,-0.28168523
2370,4.7685356,-0.32505667,-0.98181319,-0.28535044
2371,4.7705347,-0.35559994,-0.7338019,-0.30001119
2372,4.7725347,-0.36293033,-0.60613102,-0.30856332
2373,4.7745347,-0.36781722,-0.33918291,-0.33421963
2374,4.7765347,-0.36231944,-0.20357084,-0.35132387
2375,4.7785347,-0.34582609,0.04138612,-0.38980839
2376,4.7805347,-0.31955889,0.26190847,-0.43745586
2377,4.7825357,-0.30611986,0.36270124,-0.46311221
2378,4.7845366,-0.27618745,0.54351735,-0.50831622
2379,4.7865375,-0.24625506,0.68035114,-0.55413115
2380,4.7885384,-0.23587035,0.72983128,-0.57612228
2381,4.7905384,-0.21693352,0.798859,-0.62254804
2382,4.7925387,-0.20715968,0.81290895,-0.65981084
2383,4.7945387,-0.20715968,0.79824817,-0.67691505
2384,4.7965386,-0.20654881,0.72311175,-0.70929092
2385,4.7985386,-0.21632266,0.60216039,-0.73006034
2386,4.8005386,-0.22548564,0.44272459,-0.73616898
2387,4.8025377,-0.2279291,0.35231653,-0.73494726
2388,4.8045376,-0.23159428,0.15745051,-0.72761685
2389,4.8065376,-0.23403774,0.05665775,-0.71906477
2390,4.8085376,-0.23220515,-0.13576481,-0.69218665
2391,4.8105376,-0.22915083,-0.31291571,-0.66103256
2392,4.8125376,-0.22304218,-0.38560867,-0.63965225
2393,4.8145376,-0.210214,-0.5193882,-0.59200478
2394,4.8165376,-0.18883371,-0.61407226,-0.54008126
2395,4.8185376,-0.17417295,-0.64461553,-0.51014882
2396,4.8205376,-0.14118622,-0.68493265,-0.45517096
2397,4.8225381,-0.097203933,-0.69409561,-0.40263656
2398,4.824539,-0.075212784,-0.68981957,-0.38064539
2399,4.8265399,-0.028176159,-0.66660672,-0.33421963
2400,4.8285408,0.029856039,-0.62323529,-0.29634601
2401,4.8305418,0.08972083,-0.55848354,-0.25297457
2402,4.8325418,0.12454015,-0.51694471,-0.23098342
2403,4.8345418,0.19906572,-0.42164972,-0.18639025
2404,4.8365419,0.23755023,-0.36850446,-0.16378824
2405,4.8385419,0.31451926,-0.25671613,-0.11552989
2406,4.8405418,0.39637518,-0.14187345,-0.065438941
2407,4.8425409,0.43791401,-0.083230391,-0.040393464
2408,4.84454,0.51793736,0.040164389,0.0078648897
2409,4.84654,0.59063035,0.16233744,0.059788436
2410,4.8485399,0.62300617,0.2228131,0.08666651
2411,4.8505399,0.6883688,0.33276883,0.13614659
2412,4.8525393,0.71707946,0.39019018,0.15997034
2413,4.8545393,0.76411605,0.49953505,0.21494821
2414,4.8565394,0.80748749,0.60460389,0.26931521
2415,4.8585394,0.82153738,0.65530568,0.29802588
2416,4.8605394,0.85330236,0.8006916,0.37377316
2417,4.8625403,0.85818928,0.85139346,0.39332086
2418,4.8645404,0.85574585,0.90087354,0.41592288
2419,4.8665404,0.83864164,1.0059423,0.4452444
2420,4.8685404,0.80076796,1.1140655,0.46784642
2421,4.8705404,0.7427358,1.2307408,0.47028989
2422,4.8725404,0.70852733,1.2887729,0.46784642
2423,4.8745404,0.62789309,1.3834571,0.45257479
2424,4.8765404,0.58757603,1.4268285,0.44219008
2425,4.8785404,0.4977788,1.4811954,0.41164681
2426,4.8805404,0.40737075,1.5215126,0.34994942
2427,4.8825399,0.3646102,1.5263995,0.30902144
2428,4.884539,0.28458685,1.4891367,0.21006128
2429,4.8865381,0.23144157,1.3846788,0.11537717
2430,4.8885372,0.21983513,1.3119859,0.07078401
