,gyr_time,gyrX,gyrY,gyrZ
0,0.02408931,0.65095329,-0.78625995,-0.032757647
1,0.02611631,0.65095329,-0.78625995,-0.032757647
2,0.02813031,0.65095329,-0.78625995,-0.032757647
3,0.03013731,0.65095329,-0.78625995,-0.032757647
4,0.03213731,0.64240116,-0.7392233,0.10102184
5,0.03413756,0.62651867,-0.76610136,0.10163271
6,0.03613776,0.60574925,-0.78931427,0.10285444
7,0.038137926,0.597808,-0.79847723,0.10163271
8,0.040138068,0.57764947,-0.8113054,0.10102184
9,0.042138193,0.55749089,-0.82230097,0.097967513
10,0.044138304,0.54466271,-0.82535529,0.096134916
11,0.046135804,0.5257259,-0.8308531,0.091858864
12,0.048133531,0.50251305,-0.84001607,0.08086329
13,0.050131364,0.48968485,-0.84307039,0.077198096
14,0.052129364,0.46586111,-0.85345513,0.06498079
15,0.054129364,0.44142649,-0.86139637,0.049098294
16,0.056129364,0.43165267,-0.86322898,0.043600507
17,0.058129364,0.41149411,-0.86689413,0.028328875
18,0.060129364,0.39255726,-0.86506152,0.014278975
19,0.062129364,0.38217255,-0.86689413,0.0093920529
20,0.064129364,0.3656792,-0.8662833,-0.0052687125
21,0.066129364,0.34674239,-0.86322898,-0.016875152
22,0.068129364,0.34124461,-0.86139637,-0.020540344
23,0.070129364,0.32475123,-0.85528773,-0.032757647
24,0.072129364,0.3113122,-0.84978992,-0.044974953
25,0.074129364,0.30581442,-0.8467356,-0.049251009
26,0.076129364,0.29542971,-0.84368128,-0.06207918
27,0.078129364,0.28565586,-0.84368128,-0.073685624
28,0.080129401,0.28076893,-0.84490299,-0.079183407
29,0.082129436,0.27282768,-0.84978992,-0.089568116
30,0.08412947,0.25816694,-0.8620072,-0.10300715
31,0.086128603,0.25511259,-0.86567241,-0.10606148
32,0.088127303,0.24167356,-0.87605715,-0.11522446
33,0.090126003,0.23251058,-0.89193964,-0.12622003
34,0.092125169,0.22762366,-0.89743739,-0.13049608
35,0.094125169,0.21662809,-0.91270906,-0.13965906
36,0.096125135,0.20868684,-0.92431545,-0.15004377
37,0.098125101,0.20441078,-0.92553723,-0.15615243
38,0.10012507,0.19585867,-0.93347847,-0.16775887
39,0.10212503,0.18975002,-0.94447404,-0.17936531
40,0.104125,0.18486309,-0.94508487,-0.18058704
41,0.1061262,0.18058704,-0.95424789,-0.18913916
42,0.10812703,0.17875445,-0.96218914,-0.19036089
43,0.1101279,0.17631099,-0.96463257,-0.19341521
44,0.1121288,0.17386752,-0.9695195,-0.20013472
45,0.11412883,0.17631099,-0.97684991,-0.20807597
46,0.11612886,0.17692184,-0.97990423,-0.20990857
47,0.1181289,0.17936531,-0.98723459,-0.21662809
48,0.12012893,0.18608482,-0.9908998,-0.2233476
49,0.12212896,0.18547396,-0.99212152,-0.2270128
50,0.124129,0.18791743,-1.0006737,-0.23739751
51,0.12612816,0.19158261,-1.0049497,-0.24289529
52,0.1281273,0.19646953,-1.0110583,-0.25450173
53,0.13012643,0.20257819,-1.0043389,-0.26916251
54,0.13212556,0.21113031,-0.98723459,-0.28199068
55,0.13412469,0.21968241,-0.95791304,-0.30398181
56,0.13612469,0.2270128,-0.94875008,-0.31864259
57,0.13812469,0.22945626,-0.95852393,-0.32658383
58,0.14012466,0.23006712,-0.9695195,-0.32658383
59,0.14212463,0.23251058,-0.99151063,-0.32230777
60,0.14412459,0.23373231,-1.0098366,-0.32108605
61,0.14612522,0.23434319,-1.0189996,-0.31803173
62,0.14812606,0.23617578,-1.0287734,-0.31803173
63,0.15012689,0.23800837,-1.0379364,-0.31864259
64,0.15212772,0.23617578,-1.0391581,-0.31864259
65,0.15412769,0.23861924,-1.0446559,-0.32108605
66,0.15612769,0.23800837,-1.0446559,-0.32047519
67,0.15812772,0.23800837,-1.0403799,-0.32047519
68,0.16012776,0.23984097,-1.030606,-0.32352951
69,0.16212779,0.23861924,-1.0177778,-0.32536209
70,0.16412782,0.2410627,-1.0067823,-0.32352951
71,0.16612662,0.24167356,-0.98418027,-0.32841644
72,0.16812696,0.24228443,-0.96096736,-0.32414037
73,0.17012699,0.24289529,-0.94508487,-0.32719469
74,0.17212655,0.24289529,-0.91942853,-0.32475123
75,0.17412652,0.24778222,-0.91270906,-0.3290273
76,0.17612649,0.24778222,-0.88705271,-0.32841644
77,0.17812645,0.25205827,-0.86567241,-0.33024901
78,0.18012642,0.25389087,-0.85467684,-0.32841644
79,0.18212638,0.25450173,-0.84062696,-0.32414037
80,0.18412678,0.25633433,-0.82596618,-0.32169691
81,0.18612762,0.25755605,-0.82107925,-0.31864259
82,0.18812848,0.25694519,-0.81191629,-0.31253394
83,0.19012938,0.25694519,-0.80092067,-0.30642527
84,0.19213028,0.25572348,-0.79847723,-0.30214924
85,0.19413118,0.25389087,-0.79114687,-0.29726231
86,0.19613082,0.24900395,-0.78564906,-0.28871018
87,0.19813085,0.24900395,-0.78015125,-0.28565586
88,0.20013088,0.24167356,-0.77465349,-0.27466029
89,0.20213092,0.23434319,-0.76304704,-0.2654973
90,0.20413095,0.23006712,-0.7569384,-0.26183212
91,0.20613031,0.22090414,-0.74899715,-0.25389087
92,0.20812975,0.2092977,-0.73677987,-0.24350616
93,0.21012901,0.20624338,-0.73189294,-0.24289529
94,0.21212901,0.19646953,-0.717843,-0.23617578
95,0.21412901,0.18425223,-0.704404,-0.22884539
96,0.21612901,0.18364136,-0.69768447,-0.2270128
97,0.21812898,0.17203492,-0.68607801,-0.22273675
98,0.22012895,0.16653714,-0.67630416,-0.21907155
99,0.22212891,0.16348282,-0.67019552,-0.21662809
100,0.22412888,0.1549307,-0.65919995,-0.21113031
101,0.22612971,0.14821118,-0.65431303,-0.20746511
102,0.22812938,0.14698945,-0.6494261,-0.20502165
103,0.23012934,0.13782647,-0.64698267,-0.20196733
104,0.23212974,0.12988523,-0.65125871,-0.19585867
105,0.23412974,0.12744176,-0.65125871,-0.19280434
106,0.23612978,0.11950051,-0.66347599,-0.19036089
107,0.23812981,0.112781,-0.67202812,-0.18547396
108,0.24012984,0.1091158,-0.67935848,-0.18547396
109,0.24212987,0.099341959,-0.69096494,-0.18486309
110,0.24412947,0.09323331,-0.70257139,-0.18364136
111,0.24612864,0.090789847,-0.71112353,-0.18241963
112,0.24812781,0.088346384,-0.72700602,-0.1811979
113,0.25012694,0.082848601,-0.74288851,-0.1811979
114,0.25212604,0.084070332,-0.75144058,-0.17936531
115,0.254126,0.082237735,-0.76304704,-0.18241963
116,0.2561262,0.08162687,-0.77954042,-0.1811979
117,0.25812617,0.083459467,-0.78381646,-0.18180877
118,0.26012614,0.085292056,-0.7960338,-0.18486309
119,0.26212627,0.089568116,-0.80641848,-0.18608482
120,0.26412624,0.090789847,-0.80886197,-0.18730655
121,0.2661271,0.09323331,-0.81924665,-0.19097175
122,0.2681277,0.097509362,-0.82169014,-0.19280434
123,0.27012847,0.099341959,-0.82230097,-0.19280434
124,0.2721285,0.10239629,-0.82535529,-0.19341521
125,0.27412853,0.10361802,-0.82169014,-0.19158261
126,0.27612857,0.10422888,-0.82169014,-0.18913916
127,0.2781286,0.10545062,-0.81924665,-0.18730655
128,0.28012863,0.10300715,-0.81435972,-0.18364136
129,0.28212867,0.10483975,-0.8113054,-0.18180877
130,0.28412867,0.099952824,-0.80519676,-0.17936531
131,0.2861278,0.098120227,-0.80214244,-0.17753272
132,0.28812693,0.090789847,-0.79236859,-0.16836974
133,0.29012607,0.084681198,-0.78381646,-0.15920675
134,0.2921252,0.07735081,-0.77709693,-0.15737416
135,0.2941252,0.066966102,-0.76671225,-0.14760031
136,0.29612483,0.055359662,-0.75754929,-0.13843733
137,0.2981248,0.047418416,-0.74777544,-0.13599387
138,0.30012476,0.032146782,-0.74166679,-0.12622003
139,0.30212473,0.012599096,-0.72761685,-0.11888964
140,0.3041247,0.0052687125,-0.72334081,-0.11461359
141,0.30612553,-0.01488984,-0.71051264,-0.10667235
142,0.30812636,-0.031994067,-0.7019605,-0.099952824
143,0.31012719,-0.04176791,-0.69585186,-0.093844175
144,0.31212806,-0.059483003,-0.68607801,-0.090178981
145,0.31412806,-0.077198096,-0.67996937,-0.082848601
146,0.31612826,-0.08391761,-0.67447162,-0.079183407
147,0.31812829,-0.097967513,-0.6671412,-0.073074758
148,0.32012833,-0.11079568,-0.65981084,-0.066966102
149,0.32212819,-0.11446088,-0.65736735,-0.065133505
150,0.32412823,-0.12362386,-0.64637178,-0.055970527
151,0.32612736,-0.12851077,-0.6359871,-0.044364087
152,0.32812649,-0.13400856,-0.63171101,-0.040698897
153,0.33012559,-0.13706289,-0.62010461,-0.037644573
154,0.33212469,-0.14194982,-0.61582851,-0.033368513
155,0.33412376,-0.14500414,-0.61033076,-0.030925052
156,0.33612372,-0.14805846,-0.60483295,-0.027870728
157,0.33812396,-0.15172365,-0.59750259,-0.027259862
158,0.34012356,-0.14989106,-0.5950591,-0.027259862
159,0.34212352,-0.15050192,-0.58467442,-0.026648996
160,0.34412352,-0.14928019,-0.577344,-0.026038131
161,0.34612442,-0.1474476,-0.57306796,-0.024816401
162,0.34812532,-0.145615,-0.56573755,-0.024205536
163,0.35012622,-0.14133894,-0.56023979,-0.026038131
164,0.35212712,-0.14011721,-0.55535287,-0.022372939
165,0.35412716,-0.13584116,-0.54557902,-0.025427265
166,0.35612752,-0.13461943,-0.54313558,-0.024205536
167,0.35812755,-0.13095424,-0.53763777,-0.02359467
168,0.36012759,-0.1297325,-0.53213996,-0.02359467
169,0.36212759,-0.12728904,-0.52358788,-0.019929478
170,0.36412759,-0.12423472,-0.51992267,-0.019318614
171,0.36612672,-0.12240212,-0.51686835,-0.018707749
172,0.36812672,-0.11812606,-0.50831622,-0.019929478
173,0.37012672,-0.11446088,-0.50281847,-0.018707749
174,0.37212672,-0.11201742,-0.4985424,-0.020540344
175,0.37412672,-0.10713049,-0.49243376,-0.018707749
176,0.37612669,-0.10407617,-0.48999029,-0.020540344
177,0.37812665,-0.10224357,-0.48204905,-0.018707749
178,0.38012662,-0.097967513,-0.47838384,-0.019929478
179,0.38212658,-0.09552405,-0.4789947,-0.020540344
180,0.38412618,-0.091247998,-0.47716212,-0.019929478
181,0.38612615,-0.08819367,-0.47532952,-0.020540344
182,0.38812698,-0.083306745,-0.47716212,-0.019929478
183,0.39012785,-0.075365499,-0.4789947,-0.021762075
184,0.39212872,-0.072922036,-0.48265991,-0.019929478
185,0.39412965,-0.070478581,-0.48754683,-0.020540344
186,0.39612968,-0.06498079,-0.49915326,-0.019318614
187,0.39812945,-0.060704734,-0.51137054,-0.019929478
188,0.40012985,-0.060093869,-0.51809007,-0.018707749
189,0.40212988,-0.055206947,-0.53091824,-0.018096883
190,0.40412991,-0.04970916,-0.54863334,-0.016875152
191,0.40612908,-0.047265697,-0.55413115,-0.017486017
192,0.40812818,-0.044211373,-0.57001364,-0.016264288
193,0.41012814,-0.03810272,-0.58467442,-0.018707749
194,0.41212811,-0.037491854,-0.59078306,-0.016875152
195,0.41412808,-0.035659257,-0.60422206,-0.019929478
196,0.41612804,-0.029550606,-0.6146068,-0.021762075
197,0.41812801,-0.025885414,-0.61949372,-0.022372939
198,0.42012798,-0.023441954,-0.62804586,-0.022983804
199,0.42212798,-0.019776762,-0.63293272,-0.027259862
200,0.42412798,-0.017333301,-0.6341545,-0.027870728
201,0.42612884,-0.011224649,-0.63659793,-0.028481591
202,0.42812884,-0.0093920529,-0.63476533,-0.029703323
203,0.43012884,-0.0051159966,-0.63048929,-0.029092457
204,0.43212884,-0.0020616702,-0.62315893,-0.03153592
205,0.43412884,0.00099265599,-0.62071544,-0.034590244
206,0.43612884,0.0040469822,-0.60727644,-0.036422841
207,0.43812884,0.0052687125,-0.59566998,-0.039477166
208,0.44012887,0.0089339046,-0.58895046,-0.040088031
209,0.44212891,0.0107665,-0.57612228,-0.040088031
210,0.44412931,0.01198823,-0.56085068,-0.040088031
211,0.44612937,0.014431692,-0.55352026,-0.040698897
212,0.44812854,0.017486017,-0.53763777,-0.040088031
213,0.45012771,0.021762075,-0.52053356,-0.044364087
214,0.45212687,0.022372939,-0.51259232,-0.04314236
215,0.45412687,0.027259862,-0.49915326,-0.044364087
216,0.45612684,0.030314188,-0.48327076,-0.043753222
217,0.4581268,0.033368513,-0.47777298,-0.044364087
218,0.46012677,0.040698897,-0.46494481,-0.041309763
219,0.46212674,0.044364087,-0.45700356,-0.041920628
220,0.4641267,0.05047274,-0.45211664,-0.039477166
221,0.4661275,0.056581393,-0.44234279,-0.039477166
222,0.46812837,0.064522639,-0.43867761,-0.037644573
223,0.47012837,0.068187833,-0.43562329,-0.034590244
224,0.4721284,0.075518213,-0.42768204,-0.030925052
225,0.47412843,0.082237735,-0.42401683,-0.026648996
226,0.47612847,0.085902922,-0.41790819,-0.026648996
227,0.4781285,0.091400713,-0.41241041,-0.025427265
228,0.48012853,0.099341959,-0.40813434,-0.019929478
229,0.48212856,0.10300715,-0.40446916,-0.016264288
230,0.4841286,0.10606148,-0.39713877,-0.013209961
231,0.48612773,0.1091158,-0.3910301,-0.0064904434
232,0.48812686,0.1091158,-0.38553232,-0.0052687125
233,0.490126,0.11033753,-0.38064539,0.001450805
234,0.49212513,0.10667235,-0.37575847,0.010002919
235,0.4941253,0.10850494,-0.37331504,0.016111571
236,0.4961253,0.10422888,-0.37148243,0.022220224
237,0.4981253,0.097509362,-0.37209329,0.033215798
238,0.50012526,0.093844175,-0.37026069,0.041157044
239,0.50212523,0.085902922,-0.37453675,0.048487429
240,0.50412519,0.076129079,-0.37453675,0.0613156
241,0.50612603,0.073074758,-0.37820193,0.065591656
242,0.50812686,0.06207918,-0.382478,0.075976364
243,0.51012769,0.051083606,-0.38736492,0.084528476
244,0.51212853,0.046196684,-0.39530617,0.090637133
245,0.51412849,0.034590244,-0.40263656,0.1034653
246,0.51612866,0.021762075,-0.41118866,0.11385001
247,0.51812869,0.016875152,-0.41851905,0.1193478
248,0.52012872,0.003436117,-0.43256894,0.1333977
249,0.52212876,-0.0093920529,-0.44784057,0.14500414
250,0.52412879,-0.016722437,-0.45517096,0.15233453
251,0.52612796,-0.031383201,-0.4789947,0.16210836
252,0.52812712,-0.035048392,-0.48815769,0.16699529
253,0.53012629,-0.052152619,-0.50831622,0.17921259
254,0.53212542,-0.069867715,-0.53091824,0.18593211
255,0.53412452,-0.077808961,-0.54191381,0.18837558
256,0.53612449,-0.096745782,-0.56695932,0.19570595
257,0.53812445,-0.11201742,-0.59017217,0.20242546
258,0.54012442,-0.1333977,-0.61705023,0.2054798
259,0.54212412,-0.14439327,-0.63110018,0.20975585
260,0.54412408,-0.16638441,-0.66164345,0.21219932
261,0.54612495,-0.18837558,-0.69157583,0.2140319
262,0.54812582,-0.19937114,-0.71295607,0.21647537
263,0.55012672,-0.22563834,-0.74960804,0.21708624
264,0.55212762,-0.24640776,-0.78809255,0.21708624
265,0.55412748,-0.25740334,-0.80580759,0.21586451
266,0.55612752,-0.2775619,-0.84795731,0.20914499
267,0.55812755,-0.29161179,-0.87055933,0.20670153
268,0.56012758,-0.30932689,-0.91515249,0.19753855
269,0.56212762,-0.32276592,-0.9560805,0.18654297
270,0.56412765,-0.33253977,-0.97746074,0.18104519
271,0.56612675,-0.34658965,-1.0159453,0.1737148
272,0.56812588,-0.36613736,-1.0470994,0.16333009
273,0.57012588,-0.37468946,-1.0550406,0.15477799
274,0.57212588,-0.37163514,-0.99456495,0.11262828
275,0.57412588,-0.37957639,-0.91942853,0.062537327
276,0.57612571,-0.38079813,-0.88460922,0.037491854
277,0.57812481,-0.38324159,-0.8308531,-0.0040469822
278,0.58012478,-0.38385245,-0.7899251,-0.037644573
279,0.58212475,-0.38201985,-0.77221,-0.051083606
280,0.58412471,-0.37957639,-0.74533194,-0.068798698
281,0.58612598,-0.37102428,-0.72272992,-0.082237735
282,0.58812681,-0.36186129,-0.717843,-0.087124653
283,0.59012764,-0.35025486,-0.70318228,-0.092622444
284,0.59212848,-0.3300963,-0.69890618,-0.094455041
285,0.59412934,-0.31910074,-0.69890618,-0.099952824
286,0.59612938,-0.29405525,-0.7019605,-0.10300715
287,0.59812941,-0.26900977,-0.71539956,-0.10850494
288,0.60012944,-0.25557074,-0.7196756,-0.10667235
289,0.60212974,-0.22747095,-0.73861241,-0.112781
290,0.60412978,-0.19753855,-0.76060361,-0.11644619
291,0.60612894,-0.18409951,-0.77282089,-0.11705706
292,0.60812811,-0.15233453,-0.80336416,-0.12072224
293,0.61012811,-0.12240212,-0.84123778,-0.11155926
294,0.61212807,-0.10590876,-0.86261809,-0.10667235
295,0.61412764,-0.07658723,-0.89804828,-0.099952824
296,0.61612721,-0.04604397,-0.91759598,-0.10056369
297,0.61812677,-0.033215798,-0.92187202,-0.10422888
298,0.62012727,-0.0032834008,-0.92248291,-0.11583532
299,0.62212724,0.026038131,-0.90843296,-0.13049608
300,0.6241272,0.037644573,-0.89865911,-0.14210252
301,0.6261281,0.059635721,-0.87239194,-0.16103935
302,0.62812887,0.082848601,-0.83635086,-0.18058704
303,0.6301289,0.091400713,-0.81680322,-0.19097175
304,0.63212894,0.10483975,-0.7764861,-0.20196733
305,0.63412897,0.11827879,-0.73372549,-0.21418463
306,0.636129,0.12194397,-0.71417785,-0.21907155
307,0.6381299,0.12744176,-0.67752594,-0.22579107
308,0.64012993,0.13110696,-0.64515007,-0.23006712
309,0.64213003,0.12805262,-0.62743497,-0.22762366
310,0.64413003,0.13049608,-0.60544384,-0.22518019
311,0.64612873,0.12255484,-0.58284181,-0.22456934
312,0.64812787,0.1231657,-0.5755114,-0.22579107
313,0.650127,0.11583532,-0.55535287,-0.22029328
314,0.65212613,0.11033753,-0.54008126,-0.21907155
315,0.65412613,0.10606148,-0.53213996,-0.21540636
316,0.6561261,0.098731093,-0.51870096,-0.21051943
317,0.65812606,0.092622444,-0.50953799,-0.20624338
318,0.66012603,0.090789847,-0.50892711,-0.20441078
319,0.66212586,0.084681198,-0.50281847,-0.19769126
320,0.66412583,0.078572541,-0.49793154,-0.19158261
321,0.66612666,0.074907348,-0.49915326,-0.18608482
322,0.6681275,0.073685624,-0.50037497,-0.17875445
323,0.67012746,0.071242161,-0.50648367,-0.1689806
324,0.67212746,0.070631295,-0.50770539,-0.16165021
325,0.6741279,0.07002043,-0.51809007,-0.14821118
326,0.67612793,0.067576967,-0.52969652,-0.13477215
327,0.67812836,0.067576967,-0.53824866,-0.12744176
328,0.68012786,0.065133505,-0.55474198,-0.11155926
329,0.68212789,0.065133505,-0.5755114,-0.093844175
330,0.68412793,0.065133505,-0.58772874,-0.086513788
331,0.68612709,0.059635721,-0.61582851,-0.071242161
332,0.68812636,0.05841399,-0.62682408,-0.063300908
333,0.69012546,0.057803124,-0.65492392,-0.049251009
334,0.69212456,0.052305337,-0.68424541,-0.037033707
335,0.69412452,0.051694471,-0.69707358,-0.032146782
336,0.69612449,0.048029281,-0.72456253,-0.013820826
337,0.69812446,0.037033707,-0.75571668,0.0032834008
338,0.70012442,0.03520111,-0.77037746,0.01366811
339,0.70212432,0.020540344,-0.80580759,0.028328875
340,0.70412432,0.010155635,-0.83635086,0.042989641
341,0.70612522,0.0016035213,-0.84795731,0.050320026
342,0.70812612,-0.013057245,-0.87850058,0.063759059
343,0.71012662,-0.027107146,-0.90660036,0.077198096
344,0.71212752,-0.038713586,-0.91698509,0.082085021
345,0.71412756,-0.05337435,-0.9365328,0.090026267
346,0.71612759,-0.06925685,-0.95730221,0.10041098
347,0.71812762,-0.077198096,-0.96646518,0.10163271
348,0.72012766,-0.093080595,-0.97929335,0.10774136
349,0.72212779,-0.10713049,-0.99151063,0.1175152
350,0.72412779,-0.11507174,-0.99884105,0.11812606
351,0.72612692,-0.12545645,-1.0043389,0.12240212
352,0.72812605,-0.13767375,-1.0092257,0.13156511
353,0.73012519,-0.14011721,-1.0141127,0.12606731
354,0.73212432,-0.14805846,-1.0141127,0.12851077
355,0.73412342,-0.15477799,-1.0165561,0.13828462
356,0.73612379,-0.15661058,-1.0159453,0.13889548
357,0.73812375,-0.16088663,-1.0110583,0.14194982
358,0.74012372,-0.16333009,-1.0055605,0.14317155
359,0.74212368,-0.1651627,-1.0031171,0.14378241
360,0.74412365,-0.16638441,-0.99823016,0.14194982
361,0.74612448,-0.16638441,-0.99151063,0.13950635
362,0.74812532,-0.16699529,-0.98967808,0.13706289
363,0.75012618,-0.16882788,-0.97990423,0.13278683
364,0.75212708,-0.17004961,-0.9713521,0.12789991
365,0.75412712,-0.16943875,-0.96279997,0.12728904
366,0.75612715,-0.16943875,-0.95485872,0.12056953
367,0.75812718,-0.16760615,-0.94569576,0.11568261
368,0.76012721,-0.16455182,-0.94019794,0.11201742
369,0.76212725,-0.1614975,-0.93103498,0.10651962
370,0.76412728,-0.15844317,-0.9188177,0.097356647
371,0.76612648,-0.15661058,-0.91087645,0.094302319
372,0.76812645,-0.15050192,-0.89255047,0.092469729
373,0.77012681,-0.14378241,-0.87850058,0.093080595
374,0.77212678,-0.14011721,-0.87727886,0.094913185
375,0.77412674,-0.13278683,-0.86750501,0.097967513
376,0.77612671,-0.12362386,-0.86750501,0.099189244
377,0.77812668,-0.11995866,-0.86445069,0.10102184
378,0.78012664,-0.10468704,-0.85956377,0.10041098
379,0.78212664,-0.096134916,-0.85040081,0.09552405
380,0.78412668,-0.090026267,-0.84368128,0.093080595
381,0.78612728,-0.082695879,-0.8271879,0.091247998
382,0.78812818,-0.074754633,-0.80030984,0.086971939
383,0.79012908,-0.071089447,-0.79053599,0.082695879
384,0.79212998,-0.06925685,-0.76549053,0.079030693
385,0.79413088,-0.06498079,-0.74044502,0.075365499
386,0.79613091,-0.062537327,-0.73311466,0.072922036
387,0.79813094,-0.06498079,-0.70990175,0.068645984
388,0.80013094,-0.06498079,-0.69096494,0.070478581
389,0.80213094,-0.066202521,-0.67691505,0.070478581
390,0.80413094,-0.069867715,-0.65981084,0.073532902
391,0.80613007,-0.07231117,-0.65125871,0.072922036
392,0.80812921,-0.077808961,-0.6298784,0.079030693
393,0.81012921,-0.083306745,-0.61094159,0.079641558
394,0.81212917,-0.088804536,-0.59139389,0.08391761
395,0.81412914,-0.092469729,-0.5791766,0.085750207
396,0.8161291,-0.097967513,-0.56085068,0.087582804
397,0.81812907,-0.10651962,-0.54496813,0.09552405
398,0.82012904,-0.10713049,-0.53702688,0.097356647
399,0.822129,-0.11262828,-0.52908564,0.10102184
400,0.82412897,-0.11446088,-0.52908564,0.10407617
401,0.82612947,-0.11812606,-0.52419871,0.11018482
402,0.82812947,-0.11873693,-0.53397256,0.10835222
403,0.8301295,-0.12056953,-0.54008126,0.11201742
404,0.83212927,-0.11873693,-0.56268322,0.10835222
405,0.8341293,-0.12056953,-0.59200478,0.10407617
406,0.83612933,-0.11690433,-0.59383738,0.10102184
407,0.83812937,-0.11201742,-0.60300034,0.10468704
408,0.8401285,-0.10835222,-0.61094159,0.11079568
409,0.84212853,-0.11262828,-0.61582851,0.10957395
410,0.84412853,-0.11323915,-0.62560236,0.11262828
411,0.84612793,-0.11812606,-0.63110018,0.12423472
412,0.84812703,-0.11568261,-0.64148486,0.12545645
413,0.85012613,-0.1193478,-0.66653031,0.12545645
414,0.85212523,-0.12606731,-0.68424541,0.12423472
415,0.8541252,-0.12484559,-0.68363458,0.12789991
416,0.85612516,-0.12728904,-0.67508245,0.12179126
417,0.85812513,-0.13034338,-0.66653031,0.12301299
418,0.86012513,-0.13156511,-0.66347599,0.12179126
419,0.86212516,-0.12789991,-0.59200478,0.086361073
420,0.8641252,-0.13950635,-0.53702688,0.053985216
421,0.8661261,-0.145615,-0.51747924,0.03810272
422,0.868127,-0.15783231,-0.49609894,0.025274549
423,0.87012703,-0.15905404,-0.4789947,0.022831088
424,0.87212706,-0.16027577,-0.47044259,0.022831088
425,0.8741271,-0.16027577,-0.47349691,0.025274549
426,0.87612713,-0.15844317,-0.48571423,0.036880989
427,0.87812713,-0.15722144,-0.49487722,0.04176791
428,0.88012713,-0.15538885,-0.51992267,0.056428678
429,0.88212713,-0.15355626,-0.5596289,0.071089447
430,0.88412713,-0.15599971,-0.58772874,0.085750207
431,0.88612653,-0.15294538,-0.65003699,0.1034653
432,0.88812566,-0.15599971,-0.70806921,0.11629347
433,0.89012476,-0.15661058,-0.73372549,0.1193478
434,0.89212413,-0.16088663,-0.77526438,0.12545645
435,0.89412409,-0.16577356,-0.79847723,0.12484559
436,0.89612406,-0.16882788,-0.80397505,0.12423472
437,0.89812403,-0.17615826,-0.80641848,0.11690433
438,0.90012489,-0.17676914,-0.80336416,0.11018482
439,0.90212486,-0.17799085,-0.7960338,0.10713049
440,0.90412482,-0.18165605,-0.77159917,0.096134916
441,0.90612569,-0.18715385,-0.71906477,0.084528476
442,0.90812659,-0.19265163,-0.68363458,0.079641558
443,0.91012749,-0.20242546,-0.60605466,0.07231117
444,0.91212839,-0.20670153,-0.5266422,0.071700305
445,0.91412842,-0.20731239,-0.48876855,0.074143767
446,0.91612846,-0.2036472,-0.42707115,0.084528476
447,0.91812849,-0.19631682,-0.37942368,0.09980011
448,0.92012852,-0.19326249,-0.36842811,0.10590876
449,0.92212852,-0.18043432,-0.3647629,0.11690433
450,0.92412959,-0.17860173,-0.37636936,0.11812606
451,0.92612872,-0.17310394,-0.38736492,0.11812606
452,0.92812782,-0.16760615,-0.40935606,0.1175152
453,0.93012692,-0.1651627,-0.41912991,0.11995866
454,0.93212602,-0.15905404,-0.44051021,0.12118039
455,0.93412512,-0.15783231,-0.45517096,0.12240212
456,0.93612422,-0.15538885,-0.46616653,0.12301299
457,0.93812422,-0.15416712,-0.48143816,0.11995866
458,0.94012425,-0.15111279,-0.49915326,0.11629347
459,0.94212429,-0.14622587,-0.50648367,0.11446088
460,0.94412432,-0.14317155,-0.51320314,0.11446088
461,0.94612522,-0.13828462,-0.51747924,0.11507174
462,0.94812612,-0.12912165,-0.52358788,0.12240212
463,0.95012702,-0.12179126,-0.52419871,0.12912165
464,0.95212792,-0.11446088,-0.53275084,0.13706289
465,0.95412795,-0.10835222,-0.53824866,0.13706289
466,0.95612762,-0.10407617,-0.54741162,0.13034338
467,0.95812762,-0.10285444,-0.56268322,0.11873693
468,0.96012762,-0.1034653,-0.57612228,0.11507174
469,0.96212782,-0.10285444,-0.59383738,0.10407617
470,0.96412782,-0.10285444,-0.61521769,0.097356647
471,0.96612695,-0.10285444,-0.6164394,0.093691453
472,0.96812692,-0.11140655,-0.59139389,0.085139342
473,0.97012688,-0.12179126,-0.55229855,0.085139342
474,0.97212685,-0.1297325,-0.53947037,0.085750207
475,0.97412682,-0.145615,-0.51625746,0.093691453
476,0.97612678,-0.16760615,-0.48693597,0.096134916
477,0.97812675,-0.17921259,-0.46616653,0.093691453
478,0.98012671,-0.20792326,-0.42157337,0.090637133
479,0.98212668,-0.23724478,-0.37636936,0.08391761
480,0.98412558,-0.25251642,-0.35498905,0.083306745
481,0.98612701,-0.27206412,-0.32872185,0.090026267
482,0.98812791,-0.28550315,-0.32688928,0.10651962
483,0.99012881,-0.29039007,-0.33116531,0.11568261
484,0.99212971,-0.29772046,-0.35498905,0.12912165
485,0.99413061,-0.30016392,-0.38736492,0.13584116
486,0.99613151,-0.30016392,-0.4087452,0.14011721
487,0.99813155,-0.29772046,-0.44539711,0.14500414
488,1.0001315,-0.28916833,-0.48388162,0.14622587
489,1.0021315,-0.28916833,-0.50281847,0.14805846
490,1.0041315,-0.28183794,-0.53397256,0.1474476
491,1.0061306,-0.27939448,-0.5596289,0.14683673
492,1.0081297,-0.28061622,-0.56879193,0.1474476
493,1.010129,-0.28183794,-0.58039832,0.15050192
494,1.012129,-0.28305969,-0.59200478,0.145615
495,1.014129,-0.28305969,-0.59933513,0.145615
496,1.0161293,-0.28977919,-0.61766112,0.14194982
497,1.0181293,-0.29833132,-0.63843054,0.13156511
498,1.0201294,-0.30138564,-0.64392835,0.12484559
499,1.0221292,-0.31421381,-0.66164345,0.11629347
500,1.0241292,-0.32093334,-0.67996937,0.10896309
501,1.0261301,-0.32398766,-0.68729979,0.10590876
502,1.0281302,-0.32582024,-0.70929092,0.10041098
503,1.0301302,-0.31604642,-0.73616898,0.1034653
504,1.0321302,-0.31177035,-0.75266236,0.10102184
505,1.0341302,-0.29894218,-0.7764861,0.097967513
506,1.0361302,-0.28733575,-0.79786634,0.088804536
507,1.0381302,-0.27939448,-0.80764019,0.086361073
508,1.0401303,-0.25923595,-0.81802493,0.078419827
509,1.0421303,-0.24762949,-0.82169014,0.071700305
510,1.0441303,-0.24152085,-0.81497061,0.067424253
511,1.0461288,-0.22502749,-0.80275327,0.071700305
512,1.0481279,-0.2054798,-0.78320563,0.071089447
513,1.050127,-0.19814941,-0.77159917,0.074754633
514,1.0521261,-0.17738,-0.75266236,0.085750207
515,1.0541261,-0.16333009,-0.7373907,0.10041098
516,1.0561261,-0.15172365,-0.73067117,0.10590876
517,1.058126,-0.13461943,-0.7196756,0.11446088
518,1.060126,-0.1193478,-0.71356696,0.11873693
519,1.062126,-0.11140655,-0.71417785,0.12056953
520,1.064126,-0.10590876,-0.71112353,0.12301299
521,1.0661261,-0.10468704,-0.704404,0.12423472
522,1.068127,-0.10163271,-0.69340843,0.11629347
523,1.0701276,-0.096745782,-0.67508245,0.11201742
524,1.0721276,-0.094913185,-0.64820439,0.11079568
525,1.0741277,-0.098578379,-0.63171101,0.11201742
526,1.0761277,-0.09980011,-0.59261566,0.1193478
527,1.0781277,-0.099189244,-0.56573755,0.12912165
528,1.0801277,-0.10163271,-0.55107683,0.13645202
529,1.0821276,-0.098578379,-0.52969652,0.15416712
530,1.0841276,-0.093691453,-0.50831622,0.16760615
531,1.0861268,-0.087582804,-0.50281847,0.1737148
532,1.0881259,-0.078419827,-0.49548808,0.17921259
533,1.090125,-0.078419827,-0.49426633,0.18043432
534,1.0921241,-0.079030693,-0.49304461,0.17188221
535,1.0941241,-0.08086329,-0.49793154,0.16210836
536,1.0961241,-0.078419827,-0.50281847,0.15355626
537,1.0981241,-0.08086329,-0.51503575,0.13828462
538,1.1001241,-0.079030693,-0.53763777,0.12301299
539,1.1021241,-0.079030693,-0.54924423,0.11446088
540,1.1041242,-0.084528476,-0.56512672,0.097967513
541,1.1061251,-0.10163271,-0.58406353,0.07658723
542,1.108126,-0.11323915,-0.59383738,0.064369924
543,1.1101269,-0.1297325,-0.62560236,0.042989641
544,1.1121277,-0.16088663,-0.66591948,0.018555032
545,1.1141277,-0.16943875,-0.69035411,0.010002919
546,1.1161277,-0.19570595,-0.73250377,-0.0016035213
547,1.1181277,-0.21158844,-0.77159917,-0.0052687125
548,1.1201277,-0.2140319,-0.78687078,-0.0040469822
549,1.1221277,-0.2140319,-0.81558144,-0.0028252518
550,1.1241277,-0.20181461,-0.85284424,-0.0040469822
551,1.1261276,-0.19204076,-0.87300277,-0.0089339046
552,1.1281267,-0.16943875,-0.91026556,-0.025427265
553,1.1301258,-0.15050192,-0.92614806,-0.033979379
554,1.1321249,-0.14256068,-0.93103498,-0.032146782
555,1.134124,-0.13706289,-0.91576338,-0.013820826
556,1.136124,-0.14133894,-0.89132875,0.0026725354
557,1.138124,-0.14317155,-0.88827443,0.0057268618
558,1.140124,-0.14989106,-0.86933762,0.016722437
559,1.142124,-0.15172365,-0.84062696,0.032604933
560,1.144124,-0.15050192,-0.82291186,0.045433104
561,1.1461248,-0.14194982,-0.77587521,0.062537327
562,1.1481257,-0.13034338,-0.74472111,0.073532902
563,1.1501266,-0.12423472,-0.72761685,0.08086329
564,1.1521275,-0.11201742,-0.69524103,0.093691453
565,1.1541276,-0.10957395,-0.66286516,0.10529789
566,1.1561276,-0.11446088,-0.64820439,0.11079568
567,1.1581275,-0.12301299,-0.61521769,0.11812606
568,1.1601275,-0.1333977,-0.58223093,0.13034338
569,1.1621275,-0.13584116,-0.56085068,0.13706289
570,1.1641274,-0.13950635,-0.51809007,0.14928019
571,1.1661265,-0.14317155,-0.47777298,0.16333009
572,1.1681271,-0.13828462,-0.46189049,0.16943875
573,1.1701271,-0.13767375,-0.43623415,0.18043432
574,1.1721271,-0.13461943,-0.40691262,0.18959729
575,1.1741271,-0.13156511,-0.38919753,0.19204076
576,1.1761271,-0.12789991,-0.36842811,0.19326249
577,1.1781272,-0.12545645,-0.35498905,0.19692768
578,1.1801272,-0.12301299,-0.35071301,0.19692768
579,1.1821272,-0.11629347,-0.35071301,0.2054798
580,1.1841273,-0.11385001,-0.35437819,0.20853412
581,1.1861282,-0.11262828,-0.35987598,0.21097758
582,1.1881291,-0.10713049,-0.35559994,0.19876029
583,1.19013,-0.11079568,-0.37209329,0.17554741
584,1.1921308,-0.11201742,-0.39286271,0.16760615
585,1.1941317,-0.12301299,-0.42584944,0.15722144
586,1.1961317,-0.13584116,-0.4282929,0.17066048
587,1.1981317,-0.14194982,-0.42035165,0.18409951
588,1.2001317,-0.16210836,-0.39836049,0.20914499
589,1.2021317,-0.18532124,-0.37026069,0.23785566
590,1.2041317,-0.19692768,-0.35682166,0.2512947
591,1.2061308,-0.20853412,-0.36293033,0.26167941
592,1.2081299,-0.21281017,-0.37148243,0.26167941
593,1.2101298,-0.21281017,-0.4020257,0.24152085
594,1.2121298,-0.20486893,-0.43379068,0.22075143
595,1.2141297,-0.19204076,-0.46860999,0.19570595
596,1.2161297,-0.18593211,-0.48510337,0.18654297
597,1.2181296,-0.16760615,-0.52419871,0.17493653
598,1.2201296,-0.16088663,-0.57184625,0.16882788
599,1.2221296,-0.14683673,-0.59566998,0.15783231
600,1.2241296,-0.14256068,-0.65125871,0.14256068
601,1.2261305,-0.14072809,-0.67508245,0.13889548
602,1.22813,-0.13461943,-0.71478868,0.1333977
603,1.23013,-0.1297325,-0.73616898,0.13889548
604,1.23213,-0.12301299,-0.74105591,0.14378241
605,1.23413,-0.11385001,-0.74838626,0.15661058
606,1.2361317,-0.10529789,-0.75388408,0.16455182
607,1.2381317,-0.10102184,-0.7569384,0.16699529
608,1.2401316,-0.096745782,-0.75754929,0.17310394
609,1.2421316,-0.094302319,-0.75999272,0.1737148
610,1.2441316,-0.093080595,-0.75816011,0.17249307
611,1.2461307,-0.091858864,-0.75938183,0.16760615
612,1.2481298,-0.08819367,-0.75571668,0.15722144
613,1.2501289,-0.087582804,-0.75754929,0.14622587
614,1.2521281,-0.090026267,-0.75266236,0.12423472
615,1.2541281,-0.08819367,-0.74960804,0.10041098
616,1.2561293,-0.090637133,-0.75021887,0.094302319
617,1.2581293,-0.091858864,-0.74533194,0.073532902
618,1.2601294,-0.094913185,-0.73616898,0.058872137
619,1.2621294,-0.097356647,-0.73433638,0.049098294
620,1.2641294,-0.10102184,-0.7215082,0.03810272
621,1.2661307,-0.10529789,-0.71234524,0.029550606
622,1.2681316,-0.10835222,-0.70684743,0.028939741
623,1.2701316,-0.11018482,-0.69829535,0.027107146
624,1.2721316,-0.11079568,-0.68241286,0.030772336
625,1.2741316,-0.11018482,-0.67508245,0.032604933
626,1.2761316,-0.11079568,-0.66103256,0.032604933
627,1.2781317,-0.11018482,-0.64331746,0.035048392
628,1.2801317,-0.10896309,-0.6341545,0.033215798
629,1.2821317,-0.10957395,-0.61521769,0.036880989
630,1.2841317,-0.11018482,-0.59750259,0.028328875
631,1.2861307,-0.10835222,-0.59017217,0.025885414
632,1.2881298,-0.11262828,-0.57428968,0.020387627
633,1.2901289,-0.11629347,-0.56329411,0.013057245
634,1.292128,-0.11873693,-0.56023979,0.010613783
635,1.2941271,-0.12667818,-0.55657458,0.003894266
636,1.2961245,-0.13767375,-0.56268322,-0.00099265599
637,1.2981245,-0.14072809,-0.56329411,-0.00099265599
638,1.3001245,-0.15111279,-0.57795489,-0.0016035213
639,1.3021246,-0.16027577,-0.5950591,0.0032834008
640,1.3041246,-0.16271923,-0.60788727,0.0045051314
641,1.3061255,-0.17004961,-0.64270657,0.0087811882
642,1.3081264,-0.17432567,-0.67935848,0.0051159966
643,1.3101273,-0.17615826,-0.69951707,0.006337727
644,1.3121282,-0.17066048,-0.73983419,0.0057268618
645,1.3141282,-0.16943875,-0.78015125,-0.00038179077
646,1.3161268,-0.17004961,-0.79786634,-0.0022143866
647,1.3181267,-0.17249307,-0.82963139,-0.0077121737
648,1.3201266,-0.17432567,-0.85528773,-0.012599096
649,1.3221266,-0.17799085,-0.86078548,-0.013209961
650,1.3241266,-0.18654297,-0.85773116,-0.0089339046
651,1.3261253,-0.18654297,-0.85101163,-0.003436117
652,1.3281244,-0.18837558,-0.82107925,0.010613783
653,1.3301236,-0.18654297,-0.77892953,0.027718011
654,1.3321227,-0.1877647,-0.75571668,0.038713586
655,1.3341219,-0.18715385,-0.7062366,0.060704734
656,1.3361219,-0.19204076,-0.6537022,0.077808961
657,1.3381217,-0.19631682,-0.60849816,0.094913185
658,1.3401217,-0.20059288,-0.58895046,0.10529789
659,1.3421217,-0.2036472,-0.55596375,0.12240212
660,1.3441214,-0.20975585,-0.52969652,0.14256068
661,1.3461223,-0.2140319,-0.52236617,0.15111279
662,1.3481231,-0.22502749,-0.51381403,0.1651627
663,1.3501235,-0.23052527,-0.50831622,0.17554741
664,1.3521244,-0.23968825,-0.50342929,0.19020817
665,1.3541253,-0.25495988,-0.49976411,0.21158844
666,1.3561259,-0.27023152,-0.49793154,0.231747
667,1.3610354,-0.2775619,-0.49487722,0.24029912
668,1.3630354,-0.29710957,-0.49060115,0.26106852
669,1.3650353,-0.30627257,-0.48632509,0.27145323
670,1.3670353,-0.33192891,-0.48571423,0.28855747
671,1.3690344,-0.35697436,-0.48571423,0.30566171
672,1.3710343,-0.36858082,-0.48449251,0.31177035
673,1.3730343,-0.39606977,-0.48265991,0.32765284
674,1.3750343,-0.42416954,-0.47532952,0.34109187
675,1.3770342,-0.43516514,-0.47349691,0.34414622
676,1.3790341,-0.46082148,-0.46066874,0.35636351
677,1.3810345,-0.48525608,-0.45700356,0.36980253
678,1.3830345,-0.49808425,-0.45150578,0.37530035
679,1.3850346,-0.52007538,-0.43989933,0.38690677
680,1.3870346,-0.53962308,-0.43623415,0.39484802
681,1.3890355,-0.54634261,-0.43562329,0.39973494
682,1.3910364,-0.56100339,-0.43256894,0.40401101
683,1.3930373,-0.57199895,-0.43623415,0.40706533
684,1.3950381,-0.5781076,-0.43867761,0.41073051
685,1.397039,-0.58788145,-0.44784057,0.41073051
686,1.3990389,-0.5933792,-0.46127963,0.40950879
687,1.4010392,-0.59582269,-0.47349691,0.40828705
688,1.4030392,-0.60254222,-0.49304461,0.40278926
689,1.4050391,-0.60865086,-0.51564664,0.39973494
690,1.4070394,-0.60803998,-0.5266422,0.39668062
691,1.4090386,-0.6110943,-0.54557902,0.39240456
692,1.4110378,-0.61598122,-0.5577963,0.38873938
693,1.4130383,-0.61414862,-0.56146151,0.38935024
694,1.4150383,-0.61170518,-0.56695932,0.38690677
695,1.4170383,-0.61170518,-0.56940275,0.38507417
696,1.4190392,-0.60926175,-0.57123536,0.38324159
697,1.4210393,-0.60742915,-0.56512672,0.38263071
698,1.4230394,-0.60559654,-0.55901808,0.38079813
699,1.4250394,-0.60437483,-0.55901808,0.37896553
700,1.4270394,-0.60376394,-0.55352026,0.37530035
701,1.4290403,-0.60559654,-0.55474198,0.37102428
702,1.4310403,-0.60620737,-0.55290943,0.37163514
703,1.4330403,-0.60803998,-0.55107683,0.37041342
704,1.4350403,-0.61598122,-0.54680073,0.36430475
705,1.4370403,-0.61781383,-0.55046594,0.36002871
706,1.4390405,-0.62575507,-0.55168766,0.35575265
707,1.4410403,-0.63491809,-0.55046594,0.3478114
708,1.4430402,-0.64163756,-0.55168766,0.34475708
709,1.4450402,-0.64957881,-0.55413115,0.33437237
710,1.4470402,-0.66301787,-0.55596375,0.3215442
711,1.4490393,-0.66729391,-0.55657458,0.31726813
712,1.4510384,-0.67645693,-0.55657458,0.30627257
713,1.4530375,-0.68561989,-0.5577963,0.2934444
714,1.4550366,-0.68989593,-0.55657458,0.28672487
715,1.4570366,-0.69844806,-0.55290943,0.27878362
716,1.4590366,-0.70761102,-0.54924423,0.27023152
717,1.4610366,-0.71127623,-0.54313558,0.26473373
718,1.4630367,-0.71738487,-0.53580517,0.25679249
719,1.4650363,-0.7241044,-0.51992267,0.25190556
720,1.4670363,-0.72532612,-0.51014882,0.24701864
721,1.4690373,-0.73326737,-0.49548808,0.24090998
722,1.4710381,-0.73876518,-0.48388162,0.2354122
723,1.4730381,-0.74304122,-0.48143816,0.23052527
724,1.4750381,-0.75403678,-0.47532952,0.22319488
725,1.4770381,-0.76564324,-0.46922088,0.21708624
726,1.4790375,-0.76930845,-0.46860999,0.21525364
727,1.4810375,-0.78152573,-0.47166434,0.21097758
728,1.4830374,-0.7925213,-0.4741078,0.20792326
729,1.4850374,-0.79679734,-0.47532952,0.20731239
730,1.4870374,-0.81084728,-0.48449251,0.20853412
731,1.4890366,-0.81817764,-0.48876855,0.20975585
732,1.4910357,-0.83039492,-0.50281847,0.21158844
733,1.4930349,-0.84627742,-0.51442492,0.21525364
734,1.4950341,-0.85238612,-0.52297699,0.2176971
735,1.4970341,-0.86826861,-0.53519434,0.2195297
736,1.4990341,-0.8841511,-0.5461899,0.22441661
737,1.5010342,-0.89392495,-0.55107683,0.22808181
738,1.5030342,-0.91347259,-0.55901808,0.22991441
739,1.5050342,-0.93302029,-0.56695932,0.23419046
740,1.5070342,-0.94157243,-0.56757015,0.2354122
741,1.5090351,-0.96356356,-0.56757015,0.23663393
742,1.5110359,-0.98066777,-0.56695932,0.23846652
743,1.5130368,-0.9916634,-0.56146151,0.24029912
744,1.5150377,-1.006935,-0.55413115,0.23968825
745,1.5170377,-1.0240393,-0.54069209,0.23907739
746,1.5190376,-1.029537,-0.53213996,0.23846652
747,1.5210376,-1.0441978,-0.51320314,0.24029912
748,1.5230376,-1.0551933,-0.49609894,0.23785566
749,1.5250375,-1.0606911,-0.48388162,0.23785566
750,1.5270375,-1.0698541,-0.46494481,0.23907739
751,1.5290365,-1.0735193,-0.44417539,0.23663393
752,1.5310356,-1.0765736,-0.43195808,0.23724478
753,1.5330347,-1.0802388,-0.40813434,0.23663393
754,1.5350339,-1.0802388,-0.38553232,0.24090998
755,1.5370334,-1.0784062,-0.37392589,0.24090998
756,1.5390334,-1.074741,-0.35315648,0.24518603
757,1.5410334,-1.0698541,-0.33299792,0.24640776
758,1.5430335,-1.0667998,-0.32200235,0.24885122
759,1.5450335,-1.0600803,-0.30611986,0.25434902
760,1.5470335,-1.0490847,-0.29634601,0.25312728
761,1.5490348,-1.0448086,-0.29329169,0.25740334
762,1.5510356,-1.0338131,-0.28962648,0.25679249
763,1.5530365,-1.0222067,-0.28657216,0.25923595
764,1.5550373,-1.0173197,-0.2926808,0.26106852
765,1.5570371,-1.0008264,-0.29695687,0.25923595
766,1.559038,-0.98799819,-0.31528282,0.25312728
767,1.561038,-0.98005694,-0.32261321,0.24885122
768,1.563038,-0.96295267,-0.33544138,0.24152085
769,1.565038,-0.94279414,-0.34399348,0.23663393
770,1.567038,-0.93179858,-0.35071301,0.23113614
771,1.5690371,-0.90858567,-0.36293033,0.22747095
772,1.5710373,-0.88598371,-0.36598465,0.22258402
773,1.5730373,-0.87376636,-0.36781722,0.22441661
774,1.5750374,-0.85177523,-0.37331504,0.22624922
775,1.5770374,-0.82856232,-0.37392589,0.22869268
776,1.5790372,-0.81634504,-0.37514761,0.22808181
777,1.5810373,-0.79557562,-0.37392589,0.23419046
778,1.5830373,-0.77236277,-0.36903897,0.23785566
779,1.5850377,-0.76319975,-0.3647629,0.23846652
780,1.5870377,-0.74609554,-0.35559994,0.24640776
781,1.5890386,-0.72715873,-0.34949127,0.25312728
782,1.5910394,-0.71860659,-0.34765869,0.25007296
783,1.5930403,-0.70516759,-0.34032831,0.2561816
784,1.5950412,-0.69172853,-0.33544138,0.25862506
785,1.5970417,-0.68989593,-0.33421963,0.25923595
786,1.5990416,-0.67645693,-0.33360878,0.26106852
787,1.6010416,-0.66729391,-0.33238706,0.26229027
788,1.6030416,-0.66362876,-0.33727399,0.26534459
789,1.6050415,-0.65141141,-0.33727399,0.26473373
790,1.6070415,-0.64408106,-0.33971745,0.26839891
791,1.6090402,-0.63736153,-0.34277177,0.26900977
792,1.6110393,-0.62758768,-0.34643695,0.27328584
793,1.6130393,-0.61598122,-0.35193473,0.28000537
794,1.6150394,-0.60865086,-0.35865426,0.28061622
795,1.6170395,-0.59582269,-0.37331504,0.28550315
796,1.6190386,-0.58055103,-0.38736492,0.29100093
797,1.6210387,-0.57138807,-0.39897135,0.295277
798,1.6230387,-0.55611646,-0.41363212,0.3019965
799,1.6250387,-0.54939693,-0.42096251,0.30627257
800,1.6270388,-0.53595787,-0.43806675,0.30566171
801,1.6290396,-0.51824278,-0.45211664,0.30810517
802,1.6310395,-0.51152331,-0.45883617,0.30627257
803,1.6330394,-0.49991685,-0.47105345,0.3038291
804,1.6350394,-0.48647782,-0.48204905,0.30016392
805,1.6370394,-0.47975829,-0.48754683,0.29161179
806,1.6390399,-0.47181705,-0.49365547,0.28244883
807,1.6410398,-0.46265405,-0.49915326,0.27084237
808,1.6430398,-0.45837802,-0.50098586,0.26106852
809,1.6450398,-0.45104763,-0.50342929,0.24335344
810,1.6470398,-0.44005206,-0.50770539,0.22502749
811,1.6490389,-0.43455425,-0.50831622,0.21525364
812,1.6510381,-0.42172611,-0.51442492,0.19387336
813,1.6530372,-0.40523273,-0.52114439,0.16943875
814,1.6550363,-0.39790234,-0.52175528,0.15844317
815,1.6570363,-0.37957639,-0.53152913,0.13706289
816,1.6590363,-0.35819611,-0.54008126,0.11446088
817,1.6610364,-0.34964401,-0.54557902,0.10285444
818,1.6630364,-0.32704198,-0.55474198,0.08086329
819,1.6650364,-0.3038291,-0.56329411,0.057650406
820,1.6670365,-0.29100093,-0.56818104,0.04970916
821,1.6690374,-0.27023152,-0.57062447,0.027718011
822,1.6710383,-0.2457969,-0.57673317,0.0051159966
823,1.6730383,-0.23419046,-0.57490057,-0.0052687125
824,1.6750383,-0.21342105,-0.57245708,-0.028481591
825,1.6770383,-0.19387336,-0.56329411,-0.057192259
826,1.6790382,-0.18348865,-0.55474198,-0.07002043
827,1.6810382,-0.16394097,-0.53947037,-0.097509362
828,1.6830382,-0.14439327,-0.51747924,-0.1286635
829,1.6850381,-0.13889548,-0.50281847,-0.14576772
830,1.6870381,-0.12301299,-0.47594038,-0.17753272
831,1.6890372,-0.10835222,-0.44478625,-0.2092977
832,1.6910363,-0.1034653,-0.4264603,-0.22518019
833,1.6930355,-0.088804536,-0.39225185,-0.25694519
834,1.6950347,-0.080252424,-0.3562108,-0.28932106
835,1.6970352,-0.074754633,-0.33727399,-0.30337095
836,1.6990349,-0.06498079,-0.30123293,-0.33452508
837,1.7010349,-0.055206947,-0.26030496,-0.36262488
838,1.7030349,-0.052152619,-0.24136813,-0.37789652
839,1.705035,-0.041157044,-0.20532708,-0.40599632
840,1.707035,-0.030772336,-0.17050776,-0.43348524
841,1.7090359,-0.025885414,-0.155847,-0.44936773
842,1.7110368,-0.012446379,-0.12469286,-0.47807842
843,1.7130376,0.0016035213,-0.099647395,-0.5104543
844,1.7150385,0.0077121737,-0.08743009,-0.5238933
845,1.7170385,0.022983804,-0.066049807,-0.55504745
846,1.7190385,0.041920628,-0.048945576,-0.58375812
847,1.721038,0.051694471,-0.040393464,-0.59841889
848,1.7230379,0.071853027,-0.019624045,-0.62224263
849,1.7250379,0.095676772,0.0023671028,-0.64606637
850,1.7270379,0.10728321,0.010308351,-0.65645105
851,1.729037,0.12744176,0.035353824,-0.67783135
852,1.7310362,0.13843733,0.051236324,-0.68455088
853,1.7330353,0.16409367,0.073227473,-0.70043337
854,1.7350344,0.18975002,0.1007164,-0.71448326
855,1.7370336,0.20318905,0.11049025,-0.71937019
856,1.7390342,0.23067799,0.14164437,-0.72547883
857,1.7410342,0.25999951,0.17096591,-0.72853315
858,1.7430342,0.28993192,0.21006128,-0.72731143
859,1.7450342,0.30703613,0.2308307,-0.72914404
860,1.7470342,0.3375794,0.27359128,-0.72608972
861,1.7490355,0.37178785,0.32001704,-0.72242451
862,1.7510364,0.38767037,0.34078646,-0.72242451
863,1.7530372,0.42187881,0.3908774,-0.72242451
864,1.755038,0.43715045,0.40737075,-0.71937019
865,1.7570375,0.47013718,0.43913576,-0.71692669
866,1.7590375,0.5043456,0.43913576,-0.72425711
867,1.7610375,0.5257259,0.43485969,-0.73097664
868,1.7630374,0.56604302,0.40920335,-0.74930257
869,1.7650374,0.60452753,0.37132972,-0.7755698
870,1.7670374,0.62285346,0.34811684,-0.79389572
871,1.7690365,0.66133797,0.30474541,-0.82504988
872,1.7710356,0.69249213,0.26137397,-0.85742575
873,1.7730357,0.70593113,0.24426974,-0.87330824
874,1.7750357,0.72914404,0.21128301,-0.90629494
875,1.7770357,0.74869174,0.1868484,-0.93439478
876,1.7790358,0.75541121,0.1746311,-0.94966638
877,1.7810363,0.76457423,0.16302466,-0.97287929
878,1.7830363,0.76579595,0.15263996,-0.99303782
879,1.7850363,0.76579595,0.14958562,-1.0009791
880,1.7870363,0.75846559,0.14958562,-1.0107529
881,1.7890371,0.75113517,0.14775303,-1.0180833
882,1.791038,0.74258304,0.15202908,-1.0199159
883,1.7930387,0.72792232,0.15630515,-1.0223594
884,1.7950395,0.70837462,0.15935947,-1.0180833
885,1.7970404,0.69798988,0.16302466,-1.0180833
886,1.7990398,0.68271828,0.16546813,-1.0052551
887,1.8010398,0.66317058,0.16180293,-0.99059433
888,1.8030398,0.65339673,0.15691601,-0.98082054
889,1.8050398,0.63690341,0.15508342,-0.96371627
890,1.8070398,0.62407523,0.14530957,-0.94539034
891,1.8090385,0.61796653,0.13859005,-0.93561649
892,1.8110376,0.60880357,0.11354458,-0.90324062
893,1.8130377,0.60086232,0.087277375,-0.87269735
894,1.8150377,0.60208404,0.071394876,-0.85620397
895,1.8170377,0.597808,0.038408153,-0.82749331
896,1.8190377,0.59536451,0.0048105638,-0.79267401
897,1.8210377,0.5959754,-0.015347989,-0.77373719
898,1.8230382,0.59536451,-0.061773747,-0.73769617
899,1.8250383,0.59902972,-0.11491902,-0.69982249
900,1.8270383,0.5959754,-0.14607315,-0.68027478
901,1.8290392,0.59964061,-0.2138792,-0.64179027
902,1.8310401,0.60086232,-0.29023734,-0.59902972
903,1.8330401,0.60574925,-0.33238706,-0.58131462
904,1.83504,0.60819268,-0.42523858,-0.53366715
905,1.83704,0.61613393,-0.52847481,-0.48724139
906,1.8390403,0.62163174,-0.58833957,-0.46525025
907,1.8410403,0.63568163,-0.71662128,-0.41882449
908,1.8430402,0.65461844,-0.86078548,-0.36934441
909,1.8450402,0.66439229,-0.94264144,-0.34552065
910,1.8470402,0.69432473,-1.1149055,-0.29726231
911,1.8490394,0.72792232,-1.3085498,-0.25083655
912,1.8510385,0.74563742,-1.4148402,-0.2270128
913,1.8530378,0.78839797,-1.6402495,-0.1830305
914,1.855037,0.80794567,-1.7618117,-0.15737416
915,1.857037,0.84887362,-2.0208185,-0.10850494
916,1.859037,0.88002777,-2.3073144,-0.060857449
917,1.8610371,0.88796902,-2.626797,-0.0089339046
918,1.8630371,0.87086475,-2.7960067,0.020998493
919,1.8650371,0.77495891,-3.1484759,0.091247998
920,1.8670371,0.60391665,-3.4807866,0.16333009
921,1.869038,0.49640438,-3.6328919,0.19692768
922,1.8710388,0.26305383,-3.8735728,0.27389669
923,1.8730388,0.040088031,-4.0146828,0.34353533
924,1.8750388,-0.062537327,-4.040339,0.372246
925,1.8770388,-0.231747,-3.9945242,0.42111522
926,1.8790383,-0.35697436,-3.8381426,0.45349109
927,1.8810383,-0.40645447,-3.7233,0.46448666
928,1.8830378,-0.48036915,-3.442302,0.47548223
929,1.8850376,-0.53107095,-3.1093805,0.47120619
930,1.8870376,-0.54878604,-2.9291751,0.4657084
931,1.8890367,-0.57016635,-2.5486062,0.44738242
932,1.8910358,-0.57566416,-2.3506858,0.43333253
933,1.8930349,-0.56894463,-1.9414061,0.40217841
934,1.895034,-0.54939693,-1.5272394,0.35819611
935,1.8970337,-0.53534704,-1.3189344,0.33742669
936,1.8990334,-0.49808425,-0.90354604,0.2842814
937,1.9010334,-0.45410195,-0.51747924,0.24029912
938,1.9030334,-0.42783475,-0.34093916,0.22441661
939,1.9050335,-0.36858082,-0.010461068,0.21097758
940,1.9070335,-0.30566171,0.2766456,0.20853412
941,1.9090347,-0.27023152,0.40981421,0.21097758
942,1.9110356,-0.199982,0.64133215,0.22136229
943,1.9130364,-0.13095424,0.83803076,0.24213171
944,1.9150372,-0.096745782,0.91988671,0.25068381
945,1.9170372,-0.027718011,1.0609965,0.26962066
946,1.9190372,0.040698897,1.1752284,0.29100093
947,1.9210371,0.072463892,1.2234868,0.3038291
948,1.9230371,0.12927435,1.3065645,0.32276592
949,1.9250371,0.18180877,1.371927,0.34048101
950,1.9270367,0.20257819,1.398805,0.3478114
951,1.9290359,0.2410627,1.435457,0.37102428
952,1.9310351,0.26305383,1.4519503,0.39729148
953,1.9330342,0.26671904,1.4550047,0.41439572
954,1.9350334,0.25999951,1.4433982,0.45471281
955,1.9370326,0.23739751,1.4146875,0.49441907
956,1.9390327,0.22151501,1.3957508,0.51335585
957,1.9410328,0.17264579,1.3481033,0.54573172
958,1.9430328,0.11400273,1.2925144,0.57871848
959,1.9450329,0.081016004,1.2589169,0.59276837
960,1.9470329,0.0089339046,1.1819479,0.61659211
961,1.9490338,-0.066202521,1.1025354,0.63919413
962,1.9510346,-0.10163271,1.0591639,0.6501897
963,1.9530355,-0.17432567,0.97914064,0.66485047
964,1.9550364,-0.23968825,0.89484125,0.68012208
965,1.9570363,-0.27206412,0.85818928,0.68256557
966,1.9590363,-0.32765284,0.78060943,0.69295025
967,1.9610363,-0.37041342,0.70058608,0.69233942
968,1.9630362,-0.38873938,0.66271245,0.69539374
969,1.9650362,-0.41317397,0.58879775,0.69172853
970,1.9670362,-0.42722389,0.52160257,0.68134379
971,1.9690349,-0.42844561,0.48739409,0.67401344
972,1.9710349,-0.4198935,0.41836634,0.65690923
973,1.9730349,-0.40523273,0.35300374,0.63552892
974,1.9750349,-0.38935024,0.32001704,0.62758768
975,1.977035,-0.35636351,0.26076311,0.60132051
976,1.9790351,-0.31054863,0.19906572,0.57383156
977,1.9810351,-0.28733575,0.17218764,0.5622251
978,1.9830352,-0.2354122,0.11598804,0.53168184
979,1.9850352,-0.18104519,0.056123246,0.50174946
980,1.9870358,-0.15355626,0.029245174,0.48647782
981,1.9890366,-0.096134916,-0.026954429,0.45776713
982,1.9910374,-0.037491854,-0.076434515,0.42355868
983,1.9930383,-0.0093920529,-0.10209085,0.40706533
984,1.9950391,0.045585819,-0.15462527,0.37713292
985,1.9970399,0.098120227,-0.20349449,0.34536794
986,1.9990402,0.12255484,-0.23037256,0.3282637
987,2.0010402,0.16592628,-0.27740917,0.29772046
988,2.0030402,0.19891299,-0.32261321,0.26717719
989,2.0050402,0.21418463,-0.34521523,0.25312728
990,2.0070402,0.23984097,-0.39652792,0.23052527
991,2.0090393,0.25083655,-0.42340598,0.22014056
992,2.0110384,0.26427558,-0.47105345,0.20059288
993,2.0130375,0.27221683,-0.51014882,0.18043432
994,2.0150375,0.27282768,-0.53947037,0.16882788
995,2.0170387,0.27466029,-0.54802251,0.1614975
996,2.0190387,0.2673299,-0.563905,0.14683673
997,2.0210388,0.26427558,-0.56757015,0.13889548
998,2.0230388,0.25450173,-0.55901808,0.12912165
999,2.0250388,0.24533875,-0.53763777,0.11323915
1000,2.0270389,0.24228443,-0.51931185,0.10468704
1001,2.0290398,0.23434319,-0.46799913,0.086971939
1002,2.0310399,0.22640193,-0.39530617,0.067424253
1003,2.0330399,0.22518019,-0.35743251,0.056428678
1004,2.0350399,0.22151501,-0.2682462,0.03443753
1005,2.0370399,0.22212587,-0.16500998,0.01488984
1006,2.0390397,0.2233476,-0.11491902,0.001450805
1007,2.0410397,0.22518019,-0.0067958757,-0.018707749
1008,2.0430397,0.23373231,0.098883815,-0.041920628
1009,2.0450396,0.23678663,0.15447254,-0.049251009
1010,2.0470394,0.24594963,0.25526533,-0.074907348
1011,2.0490385,0.25816694,0.34933856,-0.095676772
1012,2.0510377,0.26427558,0.3945426,-0.10850494
1013,2.0530368,0.27954721,0.47884199,-0.13110696
1014,2.055036,0.29420796,0.55092412,-0.15187638
1015,2.057036,0.30459267,0.58329993,-0.16042848
1016,2.0590361,0.32108605,0.64194304,-0.18180877
1017,2.0610361,0.34368807,0.68714702,-0.20379992
1018,2.0630361,0.35407278,0.70547301,-0.2129629
1019,2.0650362,0.37728566,0.73845971,-0.23312145
1020,2.0670362,0.39927679,0.75984001,-0.25389087
1021,2.0690371,0.41454843,0.76717037,-0.26366472
1022,2.071038,0.44264823,0.76717037,-0.2868776
1023,2.0730388,0.46830457,0.76717037,-0.30459267
1024,2.0750388,0.48418707,0.7586183,-0.31619912
1025,2.077038,0.51289773,0.74640095,-0.33880115
1026,2.079038,0.54283011,0.72440982,-0.35957056
1027,2.081038,0.5587126,0.71219254,-0.37117699
1028,2.083038,0.58620155,0.6840927,-0.39133555
1029,2.0850379,0.61613393,0.64866251,-0.41454843
1030,2.0870378,0.63262731,0.63033658,-0.42859831
1031,2.0890369,0.65889454,0.5942955,-0.44936773
1032,2.091036,0.68393999,0.55703276,-0.4713589
1033,2.0930351,0.69982249,0.53565246,-0.48113275
1034,2.0950342,0.72731143,0.49594623,-0.4994587
1035,2.0970342,0.74808085,0.46112689,-0.51656294
1036,2.0990343,0.7578547,0.44280094,-0.5238933
1037,2.1010343,0.7774024,0.40614903,-0.53488886
1038,2.1030343,0.7890088,0.3749949,-0.54221928
1039,2.1050344,0.79572833,0.35911241,-0.54649532
1040,2.1070344,0.80489135,0.32918,-0.54588443
1041,2.1090353,0.80428046,0.30718887,-0.53916496
1042,2.1110362,0.80489135,0.29252809,-0.53672147
1043,2.113037,0.80000442,0.26992607,-0.53000194
1044,2.1150379,0.78595448,0.24060455,-0.51839554
1045,2.1170378,0.77679151,0.22716552,-0.51167601
1046,2.1190378,0.7560221,0.19173533,-0.49273917
1047,2.1210378,0.73280925,0.15630515,-0.47441322
1048,2.1230377,0.7187593,0.14042264,-0.46402851
1049,2.1250377,0.68699431,0.095829487,-0.43959391
1050,2.1270377,0.65339673,0.053068917,-0.41271582
1051,2.1290368,0.63690341,0.030466905,-0.40049854
1052,2.1310359,0.60269493,-0.0074067409,-0.37545305
1053,2.1330351,0.58864504,-0.026343564,-0.36262488
1054,2.1350343,0.55749089,-0.060552016,-0.3375794
1055,2.1370334,0.52755851,-0.094149604,-0.31803173
1056,2.139034,0.49884784,-0.12408201,-0.29298624
1057,2.1410341,0.48235446,-0.1381319,-0.28443414
1058,2.1430341,0.45914158,-0.16500998,-0.26488644
1059,2.1450341,0.42982006,-0.18333593,-0.24289529
1060,2.1470341,0.41699189,-0.1961641,-0.23067799
1061,2.149035,0.39377901,-0.21326832,-0.20441078
1062,2.1510361,0.36934441,-0.22670737,-0.17814358
1063,2.153037,0.36018142,-0.23342688,-0.1653154
1064,2.1550379,0.33880115,-0.24503332,-0.13843733
1065,2.1570379,0.32414037,-0.24930938,-0.12377657
1066,2.1590378,0.30520356,-0.25663975,-0.10300715
1067,2.1610378,0.28565586,-0.2596941,-0.080405138
1068,2.1630378,0.27466029,-0.26091582,-0.073074758
1069,2.1650377,0.25328001,-0.26030496,-0.053527068
1070,2.1670377,0.23678663,-0.25847235,-0.037644573
1071,2.1690368,0.22579107,-0.25480717,-0.03153592
1072,2.1710368,0.2092977,-0.24564418,-0.015653422
1073,2.1730367,0.19280434,-0.23709208,-0.0022143866
1074,2.1750367,0.18547396,-0.22976169,0.0051159966
1075,2.1770368,0.17203492,-0.21326832,0.019165898
1076,2.1790368,0.16103935,-0.1961641,0.030772336
1077,2.1810368,0.15309811,-0.18272507,0.037491854
1078,2.1830369,0.14454599,-0.15706873,0.046654832
1079,2.1850369,0.13416128,-0.12530373,0.054596081
1080,2.1870369,0.13171782,-0.10270172,0.057039544
1081,2.1890379,0.12438744,-0.062384613,0.061926465
1082,2.1910384,0.11644619,-0.015347989,0.066813387
1083,2.1930392,0.11400273,0.0066431593,0.068645984
1084,2.19504,0.10422888,0.058566704,0.075365499
1085,2.1970409,0.096287638,0.11415544,0.080252424
1086,2.1990403,0.092011578,0.14408784,0.081474155
1087,2.2010402,0.085292056,0.20028745,0.082695879
1088,2.2030402,0.076739945,0.2570979,0.086971939
1089,2.2050402,0.073685624,0.28641945,0.08819367
1090,2.2070402,0.066966102,0.33773214,0.092469729
1091,2.2090393,0.05841399,0.39332086,0.093080595
1092,2.2110382,0.055970527,0.41347942,0.091858864
1093,2.2130383,0.04680755,0.45990518,0.09552405
1094,2.2150383,0.039477166,0.50205487,0.09552405
1095,2.2170383,0.034590244,0.51610476,0.093691453
1096,2.2190384,0.026038131,0.55153495,0.094302319
1097,2.2210383,0.019318614,0.5790239,0.091247998
1098,2.2230384,0.013820826,0.59063035,0.092469729
1099,2.2250384,0.0095447693,0.6120106,0.089415401
1100,2.2270384,0.0058795782,0.63278002,0.084528476
1101,2.2290392,0.0028252518,0.64011043,0.08391761
1102,2.2310402,0.0016035213,0.65232772,0.079641558
1103,2.2330402,-0.001450805,0.66087985,0.07658723
1104,2.2350402,-0.003894266,0.66332328,0.074754633
1105,2.2370401,-0.0032834008,0.66210157,0.06925685
1106,2.2390401,-0.001450805,0.66026896,0.065591656
1107,2.2410401,0.00099265599,0.65477121,0.064369924
1108,2.24304,0.0040469822,0.64011043,0.063759059
1109,2.24504,0.0095447693,0.62422794,0.0613156
1110,2.24704,0.0107665,0.6138432,0.060704734
1111,2.2490391,0.017486017,0.58818686,0.058261272
1112,2.2510385,0.019318614,0.57719129,0.058261272
1113,2.2530377,0.024816401,0.54481542,0.054596081
1114,2.2550368,0.032146782,0.51305044,0.053985216
1115,2.2570369,0.03520111,0.47762027,0.04970916
1116,2.2590369,0.038255434,0.45929432,0.047265697
1117,2.2610369,0.04314236,0.42447498,0.040546179
1118,2.263037,0.045585819,0.38965568,0.031994067
1119,2.265037,0.046196684,0.37377316,0.029550606
1120,2.267037,0.046196684,0.34078646,0.021609358
1121,2.2690379,0.04680755,0.31268665,0.015500706
1122,2.2710387,0.044974953,0.30230194,0.014278975
1123,2.2730389,0.041309763,0.28214338,0.0093920529
1124,2.2750389,0.033979379,0.26503915,0.0057268618
1125,2.2770388,0.029092457,0.25465444,0.0026725354
1126,2.2790388,0.020540344,0.24426974,0.00022907447
1127,2.2810388,0.011377365,0.2363285,-0.0022143866
1128,2.2830388,0.0046578473,0.23205243,-0.0016035213
1129,2.2850388,-0.006337727,0.22716552,-0.0022143866
1130,2.2870384,-0.010613783,0.22472206,-0.003436117
1131,2.2890376,-0.020387627,0.22594379,-0.0064904434
1132,2.2910358,-0.031383201,0.22288945,-0.0040469822
1133,2.293035,-0.035659257,0.22411118,-0.0052687125
1134,2.2950342,-0.044822238,0.22533292,-0.0046578473
1135,2.2970347,-0.052152619,0.22533292,-0.0028252518
1136,2.2990347,-0.055206947,0.22533292,-0.0040469822
1137,2.3010347,-0.061926465,0.22472206,-0.00038179077
1138,2.3030343,-0.06498079,0.23144157,0.006337727
1139,2.3050343,-0.069867715,0.22960897,0.003894266
1140,2.3070343,-0.073532902,0.23144157,0.010002919
1141,2.3090352,-0.075365499,0.2308307,0.01488984
1142,2.3110361,-0.077198096,0.22899811,0.017944166
1143,2.3130369,-0.079641558,0.23021984,0.022220224
1144,2.3150378,-0.079030693,0.23021984,0.027107146
1145,2.3170377,-0.079030693,0.22838724,0.030161472
1146,2.3190377,-0.078419827,0.22716552,0.035659257
1147,2.3210377,-0.075365499,0.22899811,0.041157044
1148,2.3230376,-0.074143767,0.22777638,0.040546179
1149,2.3250376,-0.071700305,0.22350033,0.04176791
1150,2.3270376,-0.068645984,0.22350033,0.045433104
1151,2.3290367,-0.064369924,0.22105686,0.047265697
1152,2.3310358,-0.060704734,0.22166772,0.047876563
1153,2.3330347,-0.057039544,0.22044599,0.046654832
1154,2.3350339,-0.053985216,0.22044599,0.04604397
1155,2.3370334,-0.047265697,0.22166772,0.044211373
1156,2.3390325,-0.042989641,0.21555908,0.039324451
1157,2.3410325,-0.036270123,0.21616994,0.036270123
1158,2.3430326,-0.031994067,0.2167808,0.027107146
1159,2.3450326,-0.028328875,0.21555908,0.022220224
1160,2.347033,-0.02649628,0.21433735,0.017944166
1161,2.3490335,-0.022831088,0.21494821,0.013057245
1162,2.3510343,-0.016722437,0.21128301,0.0051159966
1163,2.3530351,-0.01488984,0.20822869,-0.0022143866
1164,2.355036,-0.011835515,0.20517437,-0.0095447693
1165,2.3570355,-0.0069485921,0.2008983,-0.016264288
1166,2.3590354,-0.0026725354,0.19906572,-0.020540344
1167,2.3610354,0.003436117,0.19601138,-0.029092457
1168,2.3630358,0.0071013086,0.19112447,-0.039477166
1169,2.3650358,0.01198823,0.18990274,-0.044974953
1170,2.3670359,0.016875152,0.18562667,-0.052305337
1171,2.369035,0.022372939,0.18257235,-0.062690049
1172,2.3710342,0.029092457,0.18257235,-0.068798698
1173,2.3730342,0.03520111,0.17707457,-0.079183407
1174,2.3750342,0.041920628,0.17951803,-0.088346384
1175,2.3770343,0.047418416,0.17707457,-0.093844175
1176,2.3790343,0.053527068,0.1727985,-0.10056369
1177,2.3810343,0.060857449,0.1746311,-0.11217013
1178,2.3830343,0.06574437,0.17340937,-0.11461359
1179,2.3850343,0.071242161,0.1746311,-0.12133311
1180,2.3870343,0.079794273,0.17340937,-0.12560916
1181,2.3890352,0.082237735,0.17707457,-0.12927435
1182,2.391036,0.088346384,0.18135062,-0.13049608
1183,2.3930369,0.094455041,0.18623754,-0.13660474
1184,2.3950377,0.097509362,0.18562667,-0.13538301
1185,2.3970382,0.10117456,0.18440494,-0.13965906
1186,2.3990391,0.10300715,0.19112447,-0.14149167
1187,2.4010391,0.10483975,0.18807013,-0.13965906
1188,2.403039,0.10300715,0.18990274,-0.14026994
1189,2.405039,0.10300715,0.19540052,-0.14210252
1190,2.407039,0.10300715,0.19356793,-0.14026994
1191,2.4090385,0.10300715,0.19784398,-0.13965906
1192,2.4110376,0.10422888,0.19540052,-0.14088079
1193,2.4130377,0.10117456,0.2008983,-0.13599387
1194,2.4150377,0.098120227,0.2045635,-0.13416128
1195,2.4170377,0.092622444,0.21311562,-0.13110696
1196,2.4190378,0.09323331,0.21433735,-0.12805262
1197,2.4210378,0.091400713,0.22105686,-0.1249983
1198,2.4230378,0.090789847,0.22594379,-0.1231657
1199,2.4250378,0.085902922,0.2326633,-0.11950051
1200,2.4270378,0.088346384,0.23816109,-0.11766792
1201,2.4290387,0.087124653,0.2448806,-0.11827879
1202,2.4310395,0.090178981,0.2485458,-0.11461359
1203,2.4330395,0.087124653,0.25831965,-0.112781
1204,2.4350394,0.085902922,0.26259568,-0.11339186
1205,2.4370394,0.086513788,0.26565003,-0.10850494
1206,2.4390393,0.086513788,0.2680935,-0.10239629
1207,2.4410393,0.085902922,0.27114782,-0.099952824
1208,2.4430394,0.08162687,0.26992607,-0.097509362
1209,2.4450394,0.079183407,0.26565003,-0.092011578
1210,2.4470394,0.07735081,0.26565003,-0.086513788
1211,2.4490386,0.074296482,0.26259568,-0.082848601
1212,2.4510378,0.074296482,0.25831965,-0.076129079
1213,2.4530369,0.075518213,0.25648704,-0.074296482
1214,2.4550361,0.07735081,0.25160012,-0.065133505
1215,2.4570361,0.076129079,0.24671321,-0.057803124
1216,2.4590361,0.079183407,0.2448806,-0.054137934
1217,2.4610361,0.084070332,0.23999368,-0.048640147
1218,2.4630361,0.087735519,0.23755023,-0.039477166
1219,2.4650361,0.091400713,0.23571762,-0.039477166
1220,2.4670361,0.091400713,0.23205243,-0.029092457
1221,2.469037,0.095065907,0.22716552,-0.021151209
1222,2.4710378,0.098120227,0.22777638,-0.015653422
1223,2.4730378,0.10178542,0.22655465,-0.0083230389
1224,2.4750374,0.098731093,0.22288945,-0.00038179077
1225,2.4770373,0.096898496,0.22350033,0.0051159966
1226,2.4790373,0.095676772,0.22288945,0.010613783
1227,2.4810373,0.091400713,0.21983513,0.016722437
1228,2.4830369,0.088346384,0.21800253,0.020387627
1229,2.4850369,0.081016004,0.21433735,0.027718011
1230,2.4870369,0.076739945,0.21372648,0.030772336
1231,2.4890361,0.071853027,0.20822869,0.036270123
1232,2.4910352,0.066966102,0.20578523,0.038713586
1233,2.4930344,0.060246583,0.2008983,0.042989641
1234,2.4950335,0.055359662,0.19784398,0.044211373
1235,2.4970341,0.048029281,0.19417879,0.047265697
1236,2.4990341,0.039477166,0.1905136,0.047876563
1237,2.5010341,0.037033707,0.18990274,0.048487429
1238,2.5030341,0.030314188,0.18501581,0.050320026
1239,2.5050341,0.025427265,0.18745928,0.050320026
1240,2.5070341,0.02359467,0.1868484,0.051541757
1241,2.5090349,0.018707749,0.1868484,0.051541757
1242,2.5110357,0.014431692,0.19173533,0.051541757
1243,2.5130366,0.0095447693,0.19417879,0.052152619
1244,2.5150374,0.0083230389,0.19723311,0.055206947
1245,2.5170374,0.003436117,0.20334177,0.055817813
1246,2.5190374,0.0052687125,0.21006128,0.054596081
1247,2.5210374,0.0016035213,0.21616994,0.060093869
1248,2.5230374,0.0022143866,0.22350033,0.063148193
1249,2.5250375,0.00099265599,0.22899811,0.0613156
1250,2.5270375,0.00038179077,0.23816109,0.065591656
1251,2.5290367,0.00038179077,0.24243714,0.066813387
1252,2.5310358,0.0040469822,0.24793494,0.069867715
1253,2.533035,0.0058795782,0.25648704,0.078419827
1254,2.5350346,0.0089339046,0.25526533,0.077808961
1255,2.5370338,0.0107665,0.2680935,0.085139342
1256,2.5390338,0.014431692,0.26992607,0.088804536
1257,2.5410334,0.020540344,0.27542385,0.094913185
1258,2.5430337,0.02359467,0.27969992,0.097356647
1259,2.5450337,0.029092457,0.28397599,0.10468704
1260,2.5470337,0.034590244,0.28886291,0.11507174
1261,2.5490346,0.038255434,0.28825203,0.11446088
1262,2.5510354,0.043753222,0.29191723,0.12362386
1263,2.5530362,0.047418416,0.29252809,0.12789991
1264,2.555037,0.051694471,0.29252809,0.13767375
1265,2.5570365,0.059024855,0.28886291,0.145615
1266,2.5590379,0.063300908,0.28825203,0.15416712
1267,2.5610379,0.064522639,0.28947377,0.15905404
1268,2.5630378,0.071853027,0.28458685,0.16760615
1269,2.5650378,0.072463892,0.28458685,0.17310394
1270,2.5670378,0.074907348,0.28580856,0.18226692
1271,2.569037,0.079794273,0.28519771,0.19387336
1272,2.571037,0.079794273,0.28703031,0.19937114
1273,2.5730371,0.085292056,0.29191723,0.20914499
1274,2.5750371,0.090789847,0.29863673,0.22197317
1275,2.5770371,0.090789847,0.3029128,0.22869268
1276,2.5790372,0.095065907,0.31024319,0.23968825
1277,2.5810372,0.096287638,0.32184961,0.2512947
1278,2.5830371,0.099952824,0.32795829,0.2561816
1279,2.5850371,0.10239629,0.33834299,0.26778805
1280,2.5870371,0.10850494,0.34567338,0.28000537
1281,2.5890379,0.112781,0.35300374,0.28611401
1282,2.5910394,0.11766792,0.36522105,0.29649872
1283,2.5930402,0.1249983,0.38537961,0.31360295
1284,2.595041,0.12683089,0.39209914,0.32093334
1285,2.5970418,0.13477215,0.41225767,0.33742669
1286,2.5990418,0.1427134,0.43424883,0.35453093
1287,2.6010421,0.14515686,0.4452444,0.36369389
1288,2.6030421,0.15370896,0.46967903,0.37896553
1289,2.6050421,0.16226108,0.49167016,0.40156755
1290,2.6070421,0.16836974,0.50205487,0.4113414
1291,2.6090413,0.17753272,0.5222134,0.435776
1292,2.6110404,0.18730655,0.53687418,0.45898888
1293,2.6130405,0.19158261,0.54420459,0.47364965
1294,2.6150405,0.20563251,0.5460372,0.50480378
1295,2.6170405,0.21418463,0.54481542,0.53168184
1296,2.6190395,0.21968241,0.55214584,0.5408448
1297,2.6210396,0.23067799,0.56314141,0.55184036
1298,2.6230396,0.23800837,0.56986094,0.55672729
1299,2.6250396,0.24350616,0.57047176,0.56405771
1300,2.6270397,0.25205827,0.56925005,0.57138807
1301,2.6290405,0.26427558,0.55642188,0.58360541
1302,2.6310405,0.26855165,0.54725891,0.59215748
1303,2.6330405,0.27404943,0.53626335,0.5994879
1304,2.6350404,0.27710375,0.51182872,0.60254222
1305,2.6370404,0.28260154,0.50144398,0.60437483
1306,2.6390404,0.28076893,0.47762027,0.60376394
1307,2.6410403,0.27527115,0.44768786,0.59643358
1308,2.6430403,0.27343854,0.42997277,0.59215748
1309,2.6450403,0.27343854,0.38904479,0.59215748
1310,2.6470404,0.2673299,0.3487277,0.58665973
1311,2.6490396,0.26427558,0.32795829,0.58360541
1312,2.6510381,0.2496148,0.29313895,0.57688588
1313,2.6530373,0.2410627,0.26503915,0.56955546
1314,2.6550365,0.22212587,0.25465444,0.56344682
1315,2.6570365,0.20135646,0.23693936,0.55122954
1316,2.6590365,0.17203492,0.22350033,0.53840137
1317,2.6610365,0.15798502,0.21983513,0.53595787
1318,2.6630365,0.13171782,0.22044599,0.52618402
1319,2.6650365,0.10178542,0.22350033,0.5292384
1320,2.6670365,0.092011578,0.23021984,0.53046012
1321,2.6690374,0.065133505,0.24671321,0.53412533
1322,2.6710383,0.033368513,0.28153253,0.53840137
1323,2.6730383,0.015653422,0.29741502,0.54023397
1324,2.6750383,-0.011835515,0.34017557,0.54023397
1325,2.6770382,-0.037491854,0.37988183,0.53473616
1326,2.6790378,-0.047876563,0.40431643,0.53534704
1327,2.6810377,-0.062537327,0.44829872,0.52862751
1328,2.6830377,-0.071700305,0.48800498,0.52068627
1329,2.6850377,-0.075365499,0.50633091,0.51579934
1330,2.6870376,-0.078419827,0.54237199,0.50541461
1331,2.6890367,-0.08086329,0.5594762,0.49930599
1332,2.6910359,-0.078419827,0.58940858,0.49258646
1333,2.693035,-0.06925685,0.61445409,0.48525608
1334,2.6950342,-0.067424253,0.62544966,0.48098001
1335,2.6970342,-0.058261272,0.64988428,0.46631926
1336,2.6990343,-0.049098294,0.66821021,0.44371724
1337,2.7010343,-0.04604397,0.68042755,0.43516514
1338,2.7030343,-0.03443753,0.69936436,0.41195226
1339,2.7050344,-0.018555032,0.71769029,0.38324159
1340,2.7070344,-0.0093920529,0.72563154,0.36858082
1341,2.7090351,0.0058795782,0.73968148,0.3392593
1342,2.711036,0.026038131,0.75128788,0.30566171
1343,2.7130368,0.033368513,0.75556397,0.29039007
1344,2.7150376,0.052916203,0.76106173,0.25679249
1345,2.7170376,0.070631295,0.7561748,0.22380576
1346,2.7190376,0.076129079,0.75250965,0.2054798
1347,2.7210376,0.087735519,0.74945527,0.17066048
1348,2.7230376,0.10056369,0.75189877,0.14194982
1349,2.7250376,0.10422888,0.75067705,0.12667818
1350,2.7270376,0.11950051,0.75006616,0.1034653
1351,2.7290368,0.13049608,0.75312048,0.086361073
1352,2.731036,0.13477215,0.75128788,0.077198096
1353,2.7330351,0.14576772,0.74029231,0.06498079
1354,2.7350343,0.15431984,0.73723799,0.06498079
1355,2.7370335,0.15859589,0.73235106,0.068035118
1356,2.7390335,0.16103935,0.71341425,0.071089447
1357,2.7410335,0.15859589,0.68714702,0.070478581
1358,2.7430335,0.1549307,0.66821021,0.069867715
1359,2.7450335,0.13965906,0.6315583,0.066813387
1360,2.7470331,0.12194397,0.58696514,0.063759059
1361,2.7490339,0.10972667,0.56375223,0.0613156
1362,2.7510348,0.090178981,0.51243961,0.057039544
1363,2.7530356,0.074907348,0.45746171,0.050320026
1364,2.7550365,0.064522639,0.43119451,0.049098294
1365,2.7570364,0.057192259,0.37866008,0.046654832
1366,2.7590364,0.041309763,0.33345607,0.048487429
1367,2.7610364,0.032757647,0.31146491,0.053985216
1368,2.7630363,0.019318614,0.28031078,0.064369924
1369,2.7650363,0.0046578473,0.25282186,0.077198096
1370,2.7670363,-0.00083993969,0.24121541,0.086971939
1371,2.7690354,-0.022220224,0.2308307,0.10529789
1372,2.771036,-0.03810272,0.23021984,0.12912165
1373,2.773036,-0.047265697,0.23755023,0.14194982
1374,2.7750361,-0.060093869,0.24182628,0.16394097
1375,2.7770361,-0.077198096,0.24732406,0.18837558
1376,2.7790361,-0.086361073,0.25404358,0.19937114
1377,2.7810362,-0.093691453,0.26198483,0.20975585
1378,2.7830362,-0.11018482,0.274813,0.21830797
1379,2.7850362,-0.1175152,0.27603474,0.22258402
1380,2.7870362,-0.12851077,0.2943607,0.22258402
1381,2.7890374,-0.13950635,0.30963233,0.22258402
1382,2.7910383,-0.14072809,0.31940615,0.22197317
1383,2.7930391,-0.14378241,0.34445164,0.22136229
1384,2.7950399,-0.14194982,0.36888626,0.22258402
1385,2.7970408,-0.14256068,0.38537961,0.22380576
1386,2.7990408,-0.14500414,0.40370557,0.22686008
1387,2.8010408,-0.14011721,0.42203152,0.22380576
1388,2.8030408,-0.13584116,0.42936191,0.2195297
1389,2.8050408,-0.13034338,0.44952047,0.2140319
1390,2.8070413,-0.11812606,0.47212249,0.20853412
1391,2.8090405,-0.11262828,0.4825072,0.20731239
1392,2.8110397,-0.1034653,0.49961141,0.19692768
1393,2.8130397,-0.093691453,0.50572008,0.18348865
1394,2.8150397,-0.087582804,0.50572008,0.17554741
1395,2.8170398,-0.080252424,0.50327659,0.16394097
1396,2.8190398,-0.077808961,0.4977788,0.15905404
1397,2.8210398,-0.074143767,0.48006374,0.1474476
1398,2.8230398,-0.07231117,0.45257479,0.13950635
1399,2.8250398,-0.07658723,0.43241623,0.13645202
1400,2.8270398,-0.082085021,0.39332086,0.1297325
1401,2.8290406,-0.089415401,0.34139732,0.1193478
1402,2.83104,-0.096134916,0.31574097,0.11690433
1403,2.83304,-0.10651962,0.25526533,0.10590876
1404,2.8350399,-0.11629347,0.19295706,0.097967513
1405,2.8370399,-0.11995866,0.16546813,0.091247998
1406,2.8390399,-0.1297325,0.10804679,0.085139342
1407,2.8410398,-0.13767375,0.048792861,0.072922036
1408,2.8430398,-0.14072809,0.022525655,0.066813387
1409,2.8450398,-0.14622587,-0.030619621,0.054596081
1410,2.8470398,-0.15111279,-0.072158456,0.03810272
1411,2.8490385,-0.15111279,-0.092317007,0.030161472
1412,2.8510377,-0.14928019,-0.13202325,0.017944166
1413,2.8530368,-0.13950635,-0.16684256,0.0075594573
1414,2.855036,-0.13217597,-0.18333593,0.0020616702
1415,2.857036,-0.11812606,-0.21876612,-0.0058795782
1416,2.8590361,-0.10102184,-0.25175285,-0.015653422
1417,2.8610361,-0.094913185,-0.26580274,-0.024205536
1418,2.8630361,-0.07658723,-0.29390255,-0.035811976
1419,2.8650361,-0.060093869,-0.32139146,-0.054137934
1420,2.867036,-0.052763484,-0.33483052,-0.064522639
1421,2.8690371,-0.038713586,-0.35376734,-0.085902922
1422,2.8710379,-0.02649628,-0.37392589,-0.11033753
1423,2.8730379,-0.019165898,-0.38186714,-0.12133311
1424,2.8750379,-0.011224649,-0.39897135,-0.14576772
1425,2.8770378,-0.0057268618,-0.41302127,-0.1689806
1426,2.8790378,-0.0026725354,-0.42035165,-0.18180877
1427,2.8810379,-0.00022907447,-0.43073636,-0.20502165
1428,2.8830379,0.0016035213,-0.44051021,-0.22579107
1429,2.8850379,0.0028252518,-0.446008,-0.23861924
1430,2.887038,0.0046578473,-0.45822528,-0.2587778
1431,2.8890371,0.0040469822,-0.47777298,-0.28321239
1432,2.8910363,0.003436117,-0.48754683,-0.29481885
1433,2.8930355,0.0022143866,-0.51137054,-0.31803173
1434,2.8950346,-0.00022907447,-0.53397256,-0.34185547
1435,2.8970346,-0.0045051314,-0.5461899,-0.35346189
1436,2.8990346,-0.0069485921,-0.56879193,-0.37300959
1437,2.9010346,-0.0081703225,-0.59017217,-0.39072469
1438,2.9030341,-0.0075594573,-0.60177863,-0.4011094
1439,2.9050341,-0.01366811,-0.6164394,-0.41577014
1440,2.9070341,-0.020998493,-0.62865669,-0.42493314
1441,2.9090349,-0.022831088,-0.63537621,-0.42859831
1442,2.9110357,-0.025885414,-0.63354361,-0.4273766
1443,2.9130366,-0.027107146,-0.62743497,-0.42187881
1444,2.9150374,-0.030161472,-0.61827201,-0.41577014
1445,2.9170374,-0.033215798,-0.59811342,-0.4011094
1446,2.9190373,-0.033215798,-0.56634843,-0.37362045
1447,2.9210372,-0.035048392,-0.54863334,-0.36018142
1448,2.9230372,-0.036270123,-0.50770539,-0.32658383
1449,2.9250372,-0.035048392,-0.46494481,-0.29237539
1450,2.9270372,-0.036880989,-0.43989933,-0.27404943
1451,2.9290361,-0.036270123,-0.39774963,-0.23984097
1452,2.9310352,-0.032604933,-0.37698022,-0.22945626
1453,2.9330344,-0.033215798,-0.33605224,-0.20441078
1454,2.9350336,-0.031383201,-0.28840476,-0.18425223
1455,2.9370327,-0.028328875,-0.26397014,-0.17753272
1456,2.9390328,-0.022220224,-0.21937698,-0.16287194
1457,2.9410328,-0.012446379,-0.16623171,-0.15004377
1458,2.9430327,0.0028252518,-0.1118647,-0.13843733
1459,2.9450327,0.0089339046,-0.086208358,-0.1286635
1460,2.9470326,0.029703323,-0.03306308,-0.1109484
1461,2.9490336,0.05047274,0.012140946,-0.097509362
1462,2.9510345,0.059635721,0.036575556,-0.092011578
1463,2.9530353,0.084070332,0.075670935,-0.081016004
1464,2.9550361,0.096287638,0.095829487,-0.075518213
1465,2.9570361,0.11827879,0.1288162,-0.073685624
1466,2.959036,0.13782647,0.13797919,-0.084070332
1467,2.9610361,0.1427134,0.12576188,-0.10545062
1468,2.9630367,0.15309811,0.077503525,-0.17508925
1469,2.9650367,0.15859589,0.0005345071,-0.26244298
1470,2.9670367,0.16226108,-0.036117408,-0.30459267
1471,2.9690358,0.17386752,-0.12102768,-0.38095084
1472,2.9710359,0.18547396,-0.21571179,-0.4554764
1473,2.9730359,0.19280434,-0.26580274,-0.48601967
1474,2.9750359,0.20257819,-0.37087157,-0.54099751
1475,2.9770359,0.20990857,-0.45089492,-0.58070379
1476,2.9790359,0.21418463,-0.4808273,-0.59169936
1477,2.981036,0.21174116,-0.50648367,-0.60391665
1478,2.9830362,0.20563251,-0.5070945,-0.60086232
1479,2.9850362,0.20257819,-0.50159675,-0.59841889
1480,2.9870361,0.19585867,-0.48204905,-0.57764947
1481,2.989037,0.18852828,-0.45944703,-0.54649532
1482,2.9910378,0.1830305,-0.446008,-0.52878022
1483,2.9930386,0.17692184,-0.42035165,-0.49029571
1484,2.9950395,0.17570011,-0.38308886,-0.44264823
1485,2.9970403,0.17508925,-0.36048687,-0.41821361
1486,2.9990407,0.17814358,-0.31161764,-0.37423131
1487,3.0010406,0.18608482,-0.26397014,-0.33819026
1488,3.0030406,0.19219348,-0.24197899,-0.32475123
1489,3.0050407,0.20746511,-0.19860756,-0.30459267
1490,3.0070407,0.22395848,-0.16073392,-0.29909489
1491,3.0090397,0.23373231,-0.13568844,-0.29604056
1492,3.0110388,0.25511259,-0.095982201,-0.29848403
1493,3.0130389,0.27343854,-0.061162882,-0.30276009
1494,3.0150389,0.28809932,-0.04100433,-0.30703613
1495,3.0170389,0.30337095,-0.011682798,-0.31192306
1496,3.0190391,0.3198643,0.013362677,-0.3198643
1497,3.021039,0.32658383,0.024969118,-0.32169691
1498,3.023039,0.33635768,0.042684209,-0.32597297
1499,3.025039,0.34246632,0.060399301,-0.32169691
1500,3.0270389,0.34552065,0.065286227,-0.31803173
1501,3.0290398,0.35040757,0.078725256,-0.30764702
1502,3.0310398,0.35346189,0.087277375,-0.28626671
1503,3.0330398,0.35040757,0.096440352,-0.27588201
1504,3.0350398,0.34735325,0.10560333,-0.24717134
1505,3.0370398,0.34307718,0.12209669,-0.21601722
1506,3.0390398,0.34063372,0.13064881,-0.19769126
1507,3.0410399,0.3290273,0.15141822,-0.16470455
1508,3.0430397,0.31558827,0.17035505,-0.13416128
1509,3.0450398,0.31070134,0.1782963,-0.12011138
1510,3.0470398,0.30276009,0.19845484,-0.094455041
1511,3.049039,0.29176453,0.20578523,-0.086513788
1512,3.0510381,0.29054278,0.20334177,-0.066355236
1513,3.0530373,0.28748846,0.19967657,-0.052916203
1514,3.0550364,0.28626671,0.19662225,-0.048640147
1515,3.0570362,0.28321239,0.17585284,-0.04314236
1516,3.0590358,0.28199068,0.15508342,-0.039477166
1517,3.0610358,0.27832547,0.12087496,-0.0388663
1518,3.0630358,0.27404943,0.10499246,-0.037033707
1519,3.0650358,0.26855165,0.062231898,-0.033368513
1520,3.0670357,0.2587778,0.021914791,-0.027870728
1521,3.0690366,0.25389087,-0.0019089539,-0.028481591
1522,3.0710374,0.24289529,-0.036728274,-0.024816401
1523,3.0730374,0.23251058,-0.073380187,-0.021151209
1524,3.0750374,0.2270128,-0.089873552,-0.014431692
1525,3.0770373,0.20746511,-0.12041681,-0.013209961
1526,3.0790373,0.18975002,-0.1521818,-0.010155635
1527,3.0810373,0.17814358,-0.1643991,-0.010155635
1528,3.0830373,0.15859589,-0.18272507,-0.0083230389
1529,3.0850374,0.14515686,-0.18944459,-0.0089339046
1530,3.0870374,0.12072224,-0.19555324,-0.0095447693
1531,3.0890367,0.095676772,-0.19188805,-0.015042556
1532,3.0910358,0.084070332,-0.18700112,-0.016875152
1533,3.093035,0.063300908,-0.16745344,-0.016264288
1534,3.0950342,0.044974953,-0.14362969,-0.018096883
1535,3.0970342,0.037033707,-0.12774719,-0.013820826
1536,3.0990339,0.02359467,-0.10086913,-0.015042556
1537,3.1010339,0.01198823,-0.070936725,-0.015042556
1538,3.1030338,0.0058795782,-0.055665094,-0.015042556
1539,3.1050335,-0.0026725354,-0.033673946,-0.013820826
1540,3.1070334,-0.010613783,-0.010461068,-0.01198823
1541,3.1090348,-0.014278975,-0.0019089539,-0.0107665
1542,3.1110357,-0.020387627,0.010308351,-0.010155635
1543,3.1130365,-0.018555032,0.018860465,-0.0064904434
1544,3.1150374,-0.020998493,0.018860465,-0.0040469822
1545,3.1170377,-0.019165898,0.023747386,-0.00099265599
1546,3.1190377,-0.016722437,0.020082194,0.0051159966
1547,3.1210377,-0.013057245,0.017027868,0.010613783
1548,3.1230378,-0.006337727,0.0066431593,0.016111571
1549,3.1250378,0.0028252518,-0.0092393365,0.024663685
1550,3.1270378,0.0052687125,-0.017180584,0.028939741
1551,3.129037,0.0107665,-0.031841353,0.033826664
1552,3.1310361,0.017486017,-0.053832501,0.043600507
1553,3.1330352,0.019929478,-0.061773747,0.047265697
1554,3.1350344,0.021762075,-0.080710568,0.04970916
1555,3.1370335,0.020540344,-0.094149604,0.053985216
1556,3.1390335,0.018707749,-0.10086913,0.054596081
1557,3.1410335,0.015042556,-0.10881037,0.057650406
1558,3.1430335,0.0077121737,-0.1100321,0.057650406
1559,3.1450334,0.0064904434,-0.11125384,0.056428678
1560,3.1470334,-0.00022907447,-0.10697778,0.05337435
1561,3.1490341,-0.0075594573,-0.099647395,0.04604397
1562,3.151035,-0.010613783,-0.09476047,0.044822238
1563,3.1530358,-0.017333301,-0.084986627,0.03810272
1564,3.1550366,-0.022831088,-0.067271538,0.031383201
1565,3.1570366,-0.027107146,-0.05627596,0.025274549
1566,3.1590368,-0.031383201,-0.039171733,0.01366811
1567,3.1610369,-0.031994067,-0.016569721,0.0045051314
1568,3.1630369,-0.031994067,-0.0080176061,-0.00038179077
1569,3.1650373,-0.031383201,0.014584408,-0.014431692
1570,3.1670373,-0.028939741,0.030466905,-0.027259862
1571,3.1690359,-0.028939741,0.040851612,-0.03153592
1572,3.1710359,-0.020387627,0.056123246,-0.039477166
1573,3.173036,-0.018555032,0.067118816,-0.048640147
1574,3.175036,-0.014278975,0.068951413,-0.056581393
1575,3.1770359,-0.011224649,0.071394876,-0.063911773
1576,3.1790359,-0.0057268618,0.07078401,-0.068798698
1577,3.1810359,-0.0026725354,0.06650795,-0.073074758
1578,3.1830358,0.00099265599,0.057344973,-0.076129079
1579,3.1850358,0.0058795782,0.046349399,-0.081016004
1580,3.1870358,0.0089339046,0.039019018,-0.08162687
1581,3.1890368,0.014431692,0.029245174,-0.079794273
1582,3.1910377,0.02359467,0.017027868,-0.074907348
1583,3.1930386,0.024205536,0.0096974857,-0.073074758
1584,3.1950396,0.027259862,-0.0012980887,-0.067576967
1585,3.1970405,0.030925052,-0.014737124,-0.05841399
1586,3.1990405,0.029703323,-0.017180584,-0.057803124
1587,3.2010405,0.027870728,-0.026954429,-0.051694471
1588,3.2030406,0.024205536,-0.034284811,-0.045585819
1589,3.2050406,0.021762075,-0.037950002,-0.042531494
1590,3.2070411,0.013820826,-0.03733914,-0.0388663
1591,3.2090403,0.011377365,-0.03733914,-0.03520111
1592,3.2110395,0.0040469822,-0.031841353,-0.030925052
1593,3.2130398,-0.0051159966,-0.02939789,-0.028481591
1594,3.2150398,-0.013057245,-0.023289237,-0.026038131
1595,3.2170398,-0.016722437,-0.018402316,-0.022983804
1596,3.2190398,-0.024052819,-0.015347989,-0.019929478
1597,3.2210397,-0.027718011,-0.011071933,-0.016875152
1598,3.2230397,-0.031994067,-0.0012980887,-0.016264288
1599,3.2250397,-0.037491854,0.002977968,-0.011377365
1600,3.2270396,-0.037491854,0.0060322941,-0.0095447693
1601,3.2290405,-0.040546179,0.0078648897,-0.0040469822
1602,3.2310404,-0.038713586,0.0041996986,-0.0016035213
1603,3.2330404,-0.04176791,0.0011453723,0.001450805
1604,3.2350404,-0.042989641,-0.011071933,0.0020616702
1605,3.2370404,-0.041157044,-0.022678372,0.0051159966
1606,3.2390404,-0.042989641,-0.031230485,0.006337727
1607,3.2410404,-0.042378776,-0.045891251,0.0032834008
1608,3.2430405,-0.042989641,-0.061162882,0.0026725354
1609,3.2450405,-0.042989641,-0.070325859,0.00022907447
1610,3.2470405,-0.044211373,-0.086208358,-0.0022143866
1611,3.2490395,-0.043600507,-0.10086913,-0.0028252518
1612,3.2510387,-0.043600507,-0.10942124,-0.0046578473
1613,3.2530378,-0.042989641,-0.12408201,-0.0064904434
1614,3.2550368,-0.044822238,-0.13935363,-0.0107665
1615,3.2570368,-0.043600507,-0.14790575,-0.0107665
1616,3.2590373,-0.045433104,-0.16500998,-0.015653422
1617,3.2610372,-0.04176791,-0.18028161,-0.019929478
1618,3.2630372,-0.044211373,-0.18944459,-0.021151209
1619,3.2650372,-0.042989641,-0.20227276,-0.027870728
1620,3.2670366,-0.039935317,-0.21815525,-0.032757647
1621,3.2690375,-0.036880989,-0.2224313,-0.03520111
1622,3.2710383,-0.032604933,-0.23587035,-0.039477166
1623,3.2730381,-0.029550606,-0.24808764,-0.04314236
1624,3.2750381,-0.025885414,-0.25175285,-0.046196684
1625,3.2770378,-0.020387627,-0.26152667,-0.048029281
1626,3.2790378,-0.012446379,-0.27252227,-0.049251009
1627,3.2810378,-0.0075594573,-0.27863091,-0.051694471
1628,3.2830379,0.0016035213,-0.29206994,-0.051694471
1629,3.2850379,0.0077121737,-0.29940033,-0.054748796
1630,3.2870379,0.0107665,-0.30795243,-0.054748796
1631,3.289037,0.019929478,-0.32139146,-0.055359662
1632,3.2910362,0.026648996,-0.33299792,-0.05047274
1633,3.2930353,0.032146782,-0.34032831,-0.049861874
1634,3.2950344,0.038255434,-0.35376734,-0.049251009
1635,3.2970344,0.042531494,-0.37087157,-0.046196684
1636,3.2990344,0.04680755,-0.37698022,-0.043753222
1637,3.3010343,0.05047274,-0.39347357,-0.04314236
1638,3.3030343,0.052305337,-0.40752348,-0.04314236
1639,3.3050343,0.052305337,-0.41485387,-0.041920628
1640,3.3070342,0.054137934,-0.4282929,-0.038255434
1641,3.3090351,0.054137934,-0.43928847,-0.037033707
1642,3.3110359,0.052916203,-0.44173193,-0.037033707
1643,3.3130367,0.053527068,-0.44906232,-0.032757647
1644,3.3150376,0.049251009,-0.45578182,-0.030925052
1645,3.3170376,0.05047274,-0.46005788,-0.029092457
1646,3.3190385,0.048029281,-0.46005788,-0.026648996
1647,3.3210386,0.042531494,-0.45761442,-0.024205536
1648,3.3230386,0.042531494,-0.45578182,-0.022983804
1649,3.3250386,0.037033707,-0.44478625,-0.019318614
1650,3.3270387,0.030314188,-0.43806675,-0.01198823
1651,3.3290378,0.029092457,-0.4350124,-0.010155635
1652,3.3310369,0.025427265,-0.42279512,-0.0052687125
1653,3.333036,0.021151209,-0.41546473,-0.0046578473
1654,3.3350351,0.017486017,-0.40141481,-0.00038179077
1655,3.3370346,0.012599096,-0.3843106,0.006337727
1656,3.3390346,0.0095447693,-0.36170858,0.011835515
1657,3.3410345,0.0071013086,-0.34949127,0.015500706
1658,3.3430345,0.0046578473,-0.32322407,0.022220224
1659,3.3450345,0.0022143866,-0.29878947,0.027718011
1660,3.3470345,-0.00022907447,-0.28351784,0.028939741
1661,3.3490352,-0.001450805,-0.24869852,0.030772336
1662,3.3510361,-0.003894266,-0.23342688,0.035048392
1663,3.353037,-0.0087811882,-0.19310978,0.035659257
1664,3.3550378,-0.014278975,-0.15096007,0.035048392
1665,3.3570378,-0.01488984,-0.1259146,0.033826664
1666,3.3590378,-0.024052819,-0.078267112,0.031994067
1667,3.3610378,-0.033826664,-0.025121834,0.027718011
1668,3.3630378,-0.031994067,0.0023671028,0.024663685
1669,3.3650379,-0.044822238,0.062842764,0.017944166
1670,3.3670379,-0.055817813,0.12209669,0.0093920529
1671,3.3690371,-0.06498079,0.15325081,0.0045051314
1672,3.3710371,-0.077198096,0.21616994,-0.0058795782
1673,3.3730371,-0.094302319,0.27236953,-0.022983804
1674,3.3750372,-0.10713049,0.3029128,-0.032757647
1675,3.3770372,-0.12423472,0.35300374,-0.048029281
1676,3.3790357,-0.14256068,0.3945426,-0.066355236
1677,3.3810356,-0.15111279,0.4104251,-0.073074758
1678,3.3830356,-0.17004961,0.43363798,-0.085902922
1679,3.3850356,-0.18409951,0.43913576,-0.10178542
1680,3.3870355,-0.19265163,0.43485969,-0.10667235
1681,3.3890364,-0.20303634,0.42203152,-0.12194397
1682,3.3910372,-0.20975585,0.39393172,-0.13538301
1683,3.3930381,-0.20975585,0.37255144,-0.13965906
1684,3.395039,-0.21281017,0.31940615,-0.14698945
1685,3.3970399,-0.20792326,0.26259568,-0.15065464
1686,3.3990399,-0.20242546,0.22655465,-0.15554157
1687,3.4010399,-0.19204076,0.14897476,-0.15615243
1688,3.40304,-0.17738,0.06650795,-0.15004377
1689,3.40504,-0.17066048,0.021303926,-0.14943291
1690,3.40704,-0.14866933,-0.069714993,-0.14698945
1691,3.4090393,-0.12484559,-0.16684256,-0.13782647
1692,3.4110385,-0.11079568,-0.21143574,-0.13293955
1693,3.4130385,-0.08819367,-0.30795243,-0.12438744
1694,3.4150385,-0.058872137,-0.4001931,-0.11339186
1695,3.4170385,-0.04604397,-0.44295365,-0.10728321
1696,3.4190385,-0.022831088,-0.52542049,-0.095065907
1697,3.4210386,0.0028252518,-0.5968917,-0.08162687
1698,3.4230386,0.014431692,-0.63354361,-0.073685624
1699,3.4250386,0.033979379,-0.68729979,-0.057192259
1700,3.4270385,0.052305337,-0.73616898,-0.042531494
1701,3.4290394,0.060857449,-0.7569384,-0.03520111
1702,3.4310393,0.073074758,-0.78687078,-0.021151209
1703,3.4330393,0.081016004,-0.80825108,-0.0089339046
1704,3.4350393,0.086513788,-0.81497061,-0.00099265599
1705,3.4370392,0.086513788,-0.82169014,0.011224649
1706,3.4390393,0.084681198,-0.82169014,0.024052819
1707,3.4410393,0.081016004,-0.82046837,0.030161472
1708,3.4430393,0.073074758,-0.8094728,0.041157044
1709,3.4450394,0.063300908,-0.79664463,0.04970916
1710,3.4470394,0.055359662,-0.78687078,0.057650406
1711,3.4490385,0.041920628,-0.76610136,0.067424253
1712,3.4510377,0.033368513,-0.75510579,0.073532902
1713,3.4530369,0.019318614,-0.73067117,0.084528476
1714,3.455036,0.0046578473,-0.704404,0.088804536
1715,3.4570351,-0.0020616702,-0.69218665,0.094302319
1716,3.4590354,-0.013057245,-0.66347599,0.10407617
1717,3.4610353,-0.021609358,-0.63354361,0.11079568
1718,3.4630353,-0.028328875,-0.60361123,0.11690433
1719,3.4650352,-0.03443753,-0.59200478,0.12118039
1720,3.4670352,-0.037491854,-0.5620724,0.12545645
1721,3.469036,-0.044822238,-0.53641605,0.12912165
1722,3.4710368,-0.045433104,-0.52358788,0.13034338
1723,3.4730368,-0.048487429,-0.50037497,0.13461943
1724,3.4750369,-0.050320026,-0.47532952,0.13584116
1725,3.4770369,-0.050320026,-0.46372309,0.13645202
1726,3.4790371,-0.050320026,-0.43928847,0.14011721
1727,3.481037,-0.051541757,-0.41607559,0.14072809
1728,3.483037,-0.050930891,-0.40569088,0.14194982
1729,3.4850371,-0.052152619,-0.38858664,0.145615
1730,3.4870371,-0.05337435,-0.382478,0.14439327
1731,3.4890362,-0.055206947,-0.37453675,0.1474476
1732,3.4910354,-0.055817813,-0.3647629,0.14866933
1733,3.4930345,-0.057039544,-0.36170858,0.14989106
1734,3.4950336,-0.059483003,-0.36231944,0.15416712
1735,3.4970336,-0.063148193,-0.37087157,0.15477799
1736,3.4990336,-0.063759059,-0.37209329,0.15661058
1737,3.5010336,-0.06498079,-0.382478,0.15722144
1738,3.5030336,-0.069867715,-0.39408445,0.15905404
1739,3.5050329,-0.070478581,-0.4001931,0.1596649
1740,3.5070328,-0.072922036,-0.41302127,0.15905404
1741,3.5090337,-0.074143767,-0.42523858,0.16210836
1742,3.5110345,-0.077808961,-0.43317983,0.1596649
1743,3.5130354,-0.082085021,-0.44784057,0.16333009
1744,3.5150362,-0.083306745,-0.46433395,0.16394097
1745,3.5170371,-0.087582804,-0.46738827,0.16333009
1746,3.5190368,-0.092469729,-0.48143816,0.16088663
1747,3.5210368,-0.097967513,-0.48693597,0.16210836
1748,3.5230372,-0.10041098,-0.49060115,0.16271923
1749,3.5250373,-0.10590876,-0.49487722,0.16333009
1750,3.5270373,-0.11140655,-0.49121201,0.16455182
1751,3.5290365,-0.11262828,-0.49060115,0.16699529
1752,3.5310357,-0.11873693,-0.48510337,0.16333009
1753,3.5330348,-0.12545645,-0.47777298,0.16333009
1754,3.535034,-0.12667818,-0.47349691,0.16333009
1755,3.5370331,-0.13645202,-0.46189049,0.15722144
1756,3.5390329,-0.14072809,-0.45150578,0.15477799
1757,3.5410328,-0.14256068,-0.44234279,0.15294538
1758,3.5430328,-0.14866933,-0.4301255,0.15111279
1759,3.5450328,-0.15538885,-0.41485387,0.145615
1760,3.5470327,-0.15661058,-0.4105778,0.14378241
1761,3.5490336,-0.16210836,-0.39652792,0.13706289
1762,3.5510345,-0.17249307,-0.38369974,0.13278683
1763,3.5530354,-0.17493653,-0.37209329,0.13095424
1764,3.5550363,-0.18165605,-0.36231944,0.12423472
1765,3.5570363,-0.19081903,-0.35010216,0.1193478
1766,3.5590359,-0.19448422,-0.34521523,0.11446088
1767,3.561036,-0.2036472,-0.33238706,0.11140655
1768,3.563036,-0.2140319,-0.32200235,0.10468704
1769,3.5650367,-0.21708624,-0.31894803,0.10224357
1770,3.5670368,-0.231747,-0.30795243,0.099189244
1771,3.5690359,-0.24152085,-0.29817858,0.094913185
1772,3.5710359,-0.24701864,-0.29634601,0.092469729
1773,3.5730359,-0.26290113,-0.28840476,0.088804536
1774,3.5750359,-0.27878362,-0.28351784,0.08819367
1775,3.5770359,-0.28794661,-0.27985263,0.085750207
1776,3.5790359,-0.30566171,-0.27863091,0.086361073
1777,3.5810359,-0.32582024,-0.26946792,0.08391761
1778,3.5830355,-0.33864841,-0.26763535,0.082085021
1779,3.5850354,-0.36186129,-0.26030496,0.079641558
1780,3.5870354,-0.39057195,-0.25480717,0.078419827
1781,3.5890362,-0.40401101,-0.25236371,0.077808961
1782,3.5910371,-0.43638685,-0.24442245,0.077808961
1783,3.5930379,-0.47181705,-0.2364812,0.07658723
1784,3.5950387,-0.4883104,-0.23037256,0.07658723
1785,3.5970396,-0.5274058,-0.22548564,0.073532902
1786,3.5990396,-0.56466854,-0.21510093,0.07231117
1787,3.6010397,-0.58299452,-0.21143574,0.06925685
1788,3.6030397,-0.62392247,-0.19921842,0.069867715
1789,3.6050397,-0.66423959,-0.19372064,0.069867715
1790,3.6070398,-0.68256557,-0.18577939,0.06925685
1791,3.6090389,-0.7241044,-0.17539468,0.071700305
1792,3.6110381,-0.74426293,-0.1698969,0.071700305
1793,3.6130381,-0.78396916,-0.15401439,0.070478581
1794,3.6150381,-0.82672977,-0.1417971,0.071089447
1795,3.617038,-0.84627742,-0.13568844,0.071089447
1796,3.6190384,-0.88720542,-0.11980595,0.06925685
1797,3.6210384,-0.92385733,-0.10636691,0.064369924
1798,3.6230383,-0.94401586,-0.095371336,0.062537327
1799,3.6250383,-0.98433298,-0.073380187,0.053985216
1800,3.6270383,-1.0252609,-0.051999904,0.047265697
1801,3.6290391,-1.0441978,-0.040393464,0.043600507
1802,3.6310392,-1.083904,-0.014737124,0.035659257
1803,3.6330392,-1.1205559,0.018249599,0.02649628
1804,3.6350392,-1.1407145,0.034742963,0.022220224
1805,3.6370393,-1.1761447,0.070173144,0.01366811
1806,3.6390393,-1.2134074,0.10865766,0.0057268618
1807,3.6410393,-1.2311225,0.12759447,-0.00038179077
1808,3.6430393,-1.2647201,0.17340937,-0.0071013086
1809,3.6450394,-1.3025938,0.21494821,-0.021762075
1810,3.6470394,-1.3203089,0.23938282,-0.026648996
1811,3.6490385,-1.3575716,0.28886291,-0.038255434
1812,3.6510376,-1.3905584,0.34628424,-0.055359662
1813,3.6530368,-1.4113278,0.37377316,-0.062690049
1814,3.6550359,-1.4492015,0.43119451,-0.083459467
1815,3.6570359,-1.4858533,0.49350277,-0.10667235
1816,3.6590359,-1.5084554,0.5264895,-0.11644619
1817,3.6610358,-1.5451072,0.59979331,-0.13782647
1818,3.6630358,-1.6025286,0.67859495,-0.1549307
1819,3.6650358,-1.6263523,0.72624242,-0.1653154
1820,3.6670357,-1.6947693,0.81603962,-0.18425223
1821,3.6690366,-1.7613536,0.88689995,-0.19097175
1822,3.6710374,-1.7918968,0.90889114,-0.19280434
1823,3.6730374,-1.8597028,0.9553169,-0.18913916
1824,3.6750374,-1.9281198,0.97547543,-0.17203492
1825,3.6770374,-1.9543869,0.97364283,-0.1653154
1826,3.6790371,-2.0148625,0.96753418,-0.14576772
1827,3.6810371,-2.0735056,0.95837122,-0.12927435
1828,3.6830368,-2.1028273,0.95592773,-0.11888964
1829,3.6850368,-2.149864,0.94737566,-0.112781
1830,3.6870368,-2.1975114,0.93882352,-0.10789407
1831,3.689036,-2.2195024,0.93454748,-0.1091158
1832,3.6910351,-2.253711,0.93149316,-0.11827879
1833,3.6930342,-2.2842543,0.93821263,-0.12927435
1834,3.6950333,-2.2946389,0.94065613,-0.13660474
1835,3.697033,-2.3196845,0.9534843,-0.15187638
1836,3.699033,-2.3337343,0.9669233,-0.16653714
1837,3.701033,-2.3422863,0.97364283,-0.17508925
1838,3.7030329,-2.3496168,0.9883036,-0.19463694
1839,3.7050329,-2.3520603,0.99929917,-0.22212587
1840,3.7070329,-2.3514495,1.0084622,-0.23678663
1841,3.7090338,-2.3453407,1.0219012,-0.26794076
1842,3.7110347,-2.3319018,1.0359511,-0.29787317
1843,3.7130356,-2.3245714,1.0420598,-0.3113122
1844,3.7150365,-2.3086889,1.0542771,-0.34246632
1845,3.7170365,-2.2879195,1.0512227,-0.36995527
1846,3.7190366,-2.275702,1.0518336,-0.38522691
1847,3.7210366,-2.2427154,1.0481684,-0.41577014
1848,3.7230366,-2.1999547,1.0402272,-0.44509169
1849,3.7250366,-2.1736877,1.0347294,-0.46158504
1850,3.7270366,-2.1162663,1.0102948,-0.49335003
1851,3.7290358,-2.0875556,1.0023535,-0.50862169
1852,3.7310349,-2.0276909,0.97730803,-0.54099751
1853,3.733034,-1.9672152,0.96325815,-0.57887119
1854,3.7350332,-1.9342284,0.95653862,-0.59414279
1855,3.7370323,-1.8700876,0.94371045,-0.63140559
1856,3.7390327,-1.8047251,0.92782795,-0.67172271
1857,3.7410326,-1.7381407,0.89972812,-0.71814847
1858,3.743033,-1.7027105,0.88140219,-0.74075049
1859,3.7450329,-1.6367371,0.82398087,-0.78778708
1860,3.7470329,-1.6025286,0.74762273,-0.81283259
1861,3.7490337,-1.5402204,0.70425129,-0.86231267
1862,3.7510346,-1.4840207,0.60284764,-0.91240358
1863,3.7530354,-1.4534775,0.54298282,-0.93500561
1864,3.7550363,-1.400943,0.40492731,-0.97165751
1865,3.7570366,-1.3636802,0.24426974,-0.99670303
1866,3.7590367,-1.3477978,0.15569428,-1.0064769
1867,3.7610367,-1.319698,-0.028787024,-1.024192
1868,3.7630367,-1.3044264,-0.2224313,-1.0296897
1869,3.7650368,-1.2983177,-0.31955889,-1.0333549
1870,3.7670368,-1.2934308,-0.51198143,-1.0431287
1871,3.769036,-1.2934308,-0.70501482,-1.0394635
1872,3.771036,-1.2958742,-0.79786634,-1.0351875
1873,3.773036,-1.3025938,-0.97562814,-1.0205268
1874,3.7750359,-1.3111459,-1.1442269,-0.99487042
1875,3.7770359,-1.3148111,-1.2144765,-0.97898793
1876,3.7790355,-1.3215306,-1.3360387,-0.93683821
1877,3.7810354,-1.3251958,-1.4264467,-0.89468849
1878,3.7830354,-1.3319153,-1.4618769,-0.86903214
1879,3.7850354,-1.333137,-1.502194,-0.83238024
1880,3.7870354,-1.3392457,-1.5119679,-0.79939353
1881,3.7890363,-1.3410783,-1.5015831,-0.77923501
1882,3.7910379,-1.3484087,-1.4624877,-0.73342007
1883,3.7930388,-1.3502413,-1.3959035,-0.68455088
1884,3.7950397,-1.3551282,-1.3549755,-0.66011626
1885,3.7970405,-1.3575716,-1.2621239,-0.61491221
1886,3.7990405,-1.3624586,-1.161942,-0.57031906
1887,3.8010406,-1.3624586,-1.1136837,-0.55443656
1888,3.8030406,-1.3636802,-1.0098366,-0.52878022
1889,3.8050406,-1.360626,-0.9188177,-0.50190216
1890,3.8070406,-1.3569608,-0.87300277,-0.48968485
1891,3.8090397,-1.3484087,-0.78931427,-0.46341765
1892,3.8110388,-1.3386348,-0.7062366,-0.43653959
1893,3.8130388,-1.3337479,-0.67019552,-0.42859831
1894,3.8150385,-1.3233632,-0.60177863,-0.41088325
1895,3.8170385,-1.3135893,-0.54374641,-0.39500073
1896,3.8190385,-1.3056481,-0.51686835,-0.39011383
1897,3.8210384,-1.2909874,-0.47655123,-0.38095084
1898,3.8230384,-1.2787701,-0.44356453,-0.37300959
1899,3.8250384,-1.2683853,-0.43440154,-0.37178785
1900,3.8270383,-1.256168,-0.41668645,-0.36995527
1901,3.829039,-1.2402855,-0.40996695,-0.37362045
1902,3.831039,-1.2292899,-0.40935606,-0.37300959
1903,3.8330391,-1.210964,-0.41424298,-0.37789652
1904,3.8350391,-1.1908054,-0.4301255,-0.38644862
1905,3.8370391,-1.1785882,-0.436845,-0.39011383
1906,3.8390395,-1.1608731,-0.4527275,-0.39805508
1907,3.8410396,-1.1364385,-0.47655123,-0.4078289
1908,3.8430396,-1.1223885,-0.48937941,-0.41210496
1909,3.8450396,-1.0979539,-0.51686835,-0.42493314
1910,3.8470393,-1.0710758,-0.5425247,-0.43715045
1911,3.8490384,-1.0576369,-0.55352026,-0.44814602
1912,3.8510368,-1.0252609,-0.56940275,-0.479911
1913,3.8530359,-1.0081568,-0.56879193,-0.49640438
1914,3.855035,-0.97517002,-0.5755114,-0.52206069
1915,3.8570354,-0.93973982,-0.57428968,-0.54283011
1916,3.8590354,-0.90125531,-0.57306796,-0.56421041
1917,3.8610354,-0.88292933,-0.57245708,-0.57337338
1918,3.8630354,-0.84749919,-0.5620724,-0.58742326
1919,3.8650354,-0.81023639,-0.54924423,-0.60452753
1920,3.8670354,-0.79496473,-0.53885949,-0.60819268
1921,3.8690358,-0.75464767,-0.51320314,-0.62224263
1922,3.8710367,-0.71738487,-0.4789947,-0.64117944
1923,3.8730367,-0.69783717,-0.45883617,-0.64789897
1924,3.8750369,-0.65385491,-0.42890376,-0.65828365
1925,3.8770369,-0.6110943,-0.39836049,-0.65706193
1926,3.8790369,-0.59093577,-0.382478,-0.65767282
1927,3.881037,-0.54512089,-0.36842811,-0.65095329
1928,3.883037,-0.52496231,-0.36170858,-0.64484465
1929,3.885037,-0.48403436,-0.34399348,-0.64484465
1930,3.8870371,-0.44860417,-0.31894803,-0.64423376
1931,3.8890362,-0.43211082,-0.30734158,-0.64301205
1932,3.8910354,-0.40095666,-0.29206994,-0.64240116
1933,3.8930345,-0.3740786,-0.28168523,-0.6350708
1934,3.8950336,-0.36125043,-0.27679831,-0.62835127
1935,3.8970336,-0.34048101,-0.27130052,-0.61307961
1936,3.8990336,-0.32337677,-0.27374399,-0.60147321
1937,3.9010336,-0.31543553,-0.27863091,-0.59841889
1938,3.9030335,-0.30260736,-0.28473955,-0.58864504
1939,3.9050335,-0.28916833,-0.29756773,-0.58314723
1940,3.9070338,-0.28489229,-0.30001119,-0.58314723
1941,3.9090347,-0.27267498,-0.3036764,-0.58009291
1942,3.9110356,-0.26473373,-0.30856332,-0.5764277
1943,3.9130365,-0.25862506,-0.30795243,-0.57459509
1944,3.9150374,-0.24457517,-0.30611986,-0.58375812
1945,3.917037,-0.23235787,-0.30673072,-0.59047765
1946,3.919037,-0.22563834,-0.30611986,-0.59353197
1947,3.9210367,-0.2140319,-0.29695687,-0.60758185
1948,3.9230369,-0.20303634,-0.27985263,-0.62468606
1949,3.9250369,-0.19570595,-0.27007881,-0.63384902
1950,3.9270369,-0.18104519,-0.25602889,-0.6503424
1951,3.9290365,-0.16882788,-0.25358543,-0.67050099
1952,3.9310356,-0.16271923,-0.25725064,-0.67905307
1953,3.9330348,-0.15477799,-0.27985263,-0.69249213
1954,3.9350339,-0.14439327,-0.30306551,-0.69982249
1955,3.937033,-0.13584116,-0.31589368,-0.7010442
1956,3.9390334,-0.12362386,-0.33360878,-0.7010442
1957,3.9410334,-0.10590876,-0.33910656,-0.70287681
1958,3.9430334,-0.094913185,-0.34338263,-0.70165509
1959,3.9450333,-0.077198096,-0.34582609,-0.70165509
1960,3.9470333,-0.055206947,-0.35193473,-0.7010442
1961,3.9490342,-0.046654832,-0.35193473,-0.69798988
1962,3.9510346,-0.020998493,-0.3580434,-0.69432473
1963,3.9530355,0.0052687125,-0.36231944,-0.68210739
1964,3.9550363,0.018707749,-0.36842811,-0.67660964
1965,3.9570363,0.048029281,-0.37453675,-0.66194886
1966,3.9590363,0.078572541,-0.3843106,-0.64423376
1967,3.9610364,0.092622444,-0.38308886,-0.63690341
1968,3.9630364,0.12622003,-0.38858664,-0.61613393
1969,3.9650364,0.16103935,-0.38736492,-0.59475368
1970,3.9670365,0.17814358,-0.38797578,-0.58375812
1971,3.9690358,0.21723895,-0.38553232,-0.55993438
1972,3.9710358,0.25450173,-0.38003454,-0.53305626
1973,3.9730358,0.27710375,-0.37698022,-0.51961726
1974,3.9750357,0.31436652,-0.36659551,-0.49579349
1975,3.9770357,0.3552945,-0.3580434,-0.4713589
1976,3.9790357,0.37300959,-0.35376734,-0.45730901
1977,3.981036,0.41577014,-0.34399348,-0.43287438
1978,3.9830358,0.45425466,-0.33360878,-0.40843979
1979,3.9850358,0.47380236,-0.33116531,-0.39500073
1980,3.9870358,0.51473033,-0.32688928,-0.37056613
1981,3.9890367,0.55077136,-0.32811099,-0.34368807
1982,3.9910376,0.56909734,-0.32933274,-0.33024901
1983,3.9930384,0.61002529,-0.33421963,-0.30581442
1984,3.9950393,0.64484465,-0.34338263,-0.27771461
1985,3.9970403,0.66500318,-0.34399348,-0.26977336
1986,3.9990399,0.69737905,-0.34826955,-0.25205827
1987,4.0010399,0.73280925,-0.34888041,-0.23678663
1988,4.0030399,0.75174606,-0.35071301,-0.23128885
1989,4.0050399,0.78228933,-0.34765869,-0.22090414
1990,4.0070399,0.81527603,-0.34460434,-0.20502165
1991,4.0090391,0.83054763,-0.34338263,-0.19830213
1992,4.0110386,0.85742575,-0.33788484,-0.18547396
1993,4.0130386,0.87391907,-0.33238706,-0.17631099
1994,4.0150386,0.89896458,-0.32627839,-0.16226108
1995,4.0170386,0.92523175,-0.32139146,-0.14943291
1996,4.0190385,0.93867081,-0.31711543,-0.14576772
1997,4.0210385,0.95882934,-0.30611986,-0.13843733
1998,4.0230381,0.97837704,-0.3036764,-0.1372156
1999,4.0250381,0.98876178,-0.30550897,-0.13416128
2000,4.0270381,1.0076985,-0.29940033,-0.13782647
2001,4.0290388,1.0272462,-0.29390255,-0.14026994
2002,4.0310387,1.0345767,-0.28962648,-0.1427134
2003,4.0330387,1.0516809,-0.27985263,-0.14149167
2004,4.0350387,1.0663416,-0.26519188,-0.14454599
2005,4.0370387,1.0724503,-0.25541803,-0.14637859
2006,4.0390387,1.0944414,-0.23892467,-0.14210252
2007,4.0410387,1.1066587,-0.21754439,-0.13843733
2008,4.0430387,1.1176543,-0.20777054,-0.13660474
2009,4.0450388,1.132926,-0.1821142,-0.12622003
2010,4.0470398,1.1506411,-0.15157095,-0.11888964
2011,4.0490389,1.1585823,-0.13263412,-0.11888964
2012,4.0510381,1.1738539,-0.094149604,-0.11155926
2013,4.0530372,1.1854603,-0.058719423,-0.10117456
2014,4.0550363,1.1897364,-0.03733914,-0.098120227
2015,4.0570363,1.1970668,-0.0061850105,-0.08895725
2016,4.059036,1.1988994,0.024969118,-0.084070332
2017,4.0610359,1.1958451,0.038408153,-0.076739945
2018,4.0630359,1.1921799,0.060399301,-0.066355236
2019,4.0650359,1.1842387,0.083001316,-0.052305337
2020,4.0670359,1.1793517,0.095218621,-0.04314236
2021,4.0690368,1.1683562,0.11476631,-0.021762075
2022,4.0710377,1.1555279,0.13492486,-0.0040469822
2023,4.0730377,1.1494193,0.14530957,0.0051159966
2024,4.0750378,1.132315,0.15813774,0.019776762
2025,4.0770378,1.1139891,0.16546813,0.033826664
2026,4.0790378,1.1060479,0.16546813,0.038713586
2027,4.0810379,1.0852785,0.16546813,0.053985216
2028,4.0830382,1.064509,0.15874861,0.064369924
2029,4.0850382,1.0529026,0.14714217,0.06925685
2030,4.0870382,1.0303006,0.11782064,0.077198096
2031,4.0890373,1.0040334,0.073227473,0.084528476
2032,4.0910364,0.99059433,0.043295074,0.087582804
2033,4.0930356,0.96371627,-0.020234911,0.09552405
2034,4.0950347,0.93439478,-0.093538739,0.10713049
2035,4.0970347,0.91912311,-0.12835807,0.11568261
2036,4.0990354,0.88796902,-0.20410535,0.13706289
2037,4.1010354,0.85681486,-0.27924177,0.15477799
2038,4.1030354,0.83909976,-0.31589368,0.16882788
2039,4.1050353,0.80977821,-0.39041924,0.19753855
2040,4.1070343,0.78473276,-0.46372309,0.22930354
2041,4.1090349,0.77068287,-0.49670979,0.2494621
2042,4.1110358,0.74808085,-0.56451583,0.28489229
2043,4.1130366,0.72425711,-0.62315893,0.32582024
2044,4.1150375,0.71326154,-0.65064782,0.34109187
2045,4.1170376,0.69310296,-0.70501482,0.37835467
2046,4.1190379,0.66989011,-0.75510579,0.40950879
2047,4.1210379,0.65706193,-0.78381646,0.42905647
2048,4.1230379,0.62712955,-0.84123778,0.45471281
2049,4.125038,0.5959754,-0.90598953,0.47914743
2050,4.127038,0.58009291,-0.93592191,0.48892128
2051,4.1290371,0.54893875,-1.0043389,0.50052774
2052,4.1310362,0.53183454,-1.0373255,0.50480378
2053,4.1330353,0.4976261,-1.0971904,0.50907981
2054,4.1350344,0.46036333,-1.1533899,0.50358206
2055,4.1370338,0.44142649,-1.1790463,0.50113857
2056,4.1390334,0.39683333,-1.2181417,0.48342347
2057,4.1410334,0.34490979,-1.2535719,0.46326494
2058,4.1430334,0.28626671,-1.275563,0.43455425
2059,4.1450334,0.25389087,-1.2871695,0.4180609
2060,4.1470334,0.18730655,-1.298165,0.38324159
2061,4.1490344,0.15187638,-1.2993867,0.36308303
2062,4.1510348,0.087735519,-1.3024411,0.32398766
2063,4.1530357,0.027259862,-1.2993867,0.28244883
2064,4.1550366,-0.0051159966,-1.2993867,0.26473373
2065,4.1570366,-0.062537327,-1.3054954,0.22991441
2066,4.1590359,-0.11079568,-1.3061062,0.19814941
2067,4.1610362,-0.15844317,-1.3177127,0.17310394
2068,4.1630362,-0.18165605,-1.3244323,0.16210836
2069,4.1650362,-0.22014056,-1.3372604,0.14072809
2070,4.1670362,-0.23785566,-1.3415364,0.1297325
2071,4.1690355,-0.27145323,-1.3464234,0.11568261
2072,4.1710346,-0.30260736,-1.3317626,0.097967513
2073,4.1730346,-0.31910074,-1.3225996,0.087582804
2074,4.1750346,-0.34842226,-1.2975541,0.065591656
2075,4.1770346,-0.37835467,-1.2511284,0.038713586
2076,4.1790345,-0.39423716,-1.2236395,0.028328875
2077,4.1810345,-0.42355868,-1.1643856,-0.0083230389
2078,4.1830345,-0.45165849,-1.094136,-0.052305337
2079,4.1850344,-0.4657084,-1.0562624,-0.076129079
2080,4.1870344,-0.48586693,-0.97562814,-0.13416128
2081,4.1890352,-0.50541461,-0.89132875,-0.19036089
2082,4.1910361,-0.5096907,-0.8467356,-0.22090414
2083,4.193037,-0.51518846,-0.75999272,-0.27893636
2084,4.1950379,-0.50663638,-0.67630416,-0.32597297
2085,4.1970385,-0.49808425,-0.63659793,-0.34735325
2086,4.19904,-0.47364965,-0.5577963,-0.3815617
2087,4.2010401,-0.44066292,-0.48449251,-0.41210496
2088,4.2030401,-0.41928264,-0.45089492,-0.42432228
2089,4.2050401,-0.36919168,-0.38980839,-0.44142649
2090,4.2070401,-0.30749428,-0.33177617,-0.45303294
2091,4.2090392,-0.2757293,-0.30306551,-0.45914158
2092,4.2110388,-0.19814941,-0.24747679,-0.46586111
2093,4.2130388,-0.11446088,-0.18944459,-0.4731915
2094,4.2150388,-0.070478581,-0.15890132,-0.47807842
2095,4.2170387,0.024205536,-0.094149604,-0.48235446
2096,4.2190387,0.12622003,-0.019013181,-0.48479792
2097,4.2210384,0.17997618,0.019471331,-0.48479792
2098,4.2230384,0.28871018,0.099494673,-0.48479792
2099,4.2250384,0.40172026,0.18257235,-0.47930014
2100,4.2270385,0.45853072,0.21983513,-0.47807842
2101,4.2290399,0.57398427,0.29497156,-0.47258061
2102,4.2310408,0.68210739,0.36338845,-0.46036333
2103,4.2330408,0.73708528,0.39271,-0.45669812
2104,4.2350409,0.83176941,0.44402269,-0.44997862
2105,4.2370409,0.91912311,0.48739409,-0.44020477
2106,4.2390409,0.95821851,0.50755268,-0.43348524
2107,4.2410409,1.0278572,0.55214584,-0.41943535
2108,4.2430409,1.0834459,0.59734982,-0.39988765
2109,4.2450409,1.1078805,0.6162867,-0.38889208
2110,4.2470409,1.1445324,0.65354943,-0.36812267
2111,4.24904,1.1555279,0.6706537,-0.35590535
2112,4.2510392,1.173243,0.68897963,-0.33024901
2113,4.2530383,1.1769083,0.68959051,-0.30153835
2114,4.2550374,1.1726322,0.6840927,-0.28993192
2115,4.2570373,1.1622475,0.6492734,-0.26671904
2116,4.2590362,1.1384238,0.59734982,-0.25144741
2117,4.2610361,1.105437,0.53198725,-0.23861924
2118,4.2630361,1.0865002,0.49655709,-0.23617578
2119,4.2650361,1.0400745,0.41225767,-0.24228443
2120,4.267036,0.98631829,0.33223432,-0.25694519
2121,4.2690369,0.95882934,0.29558241,-0.26794076
2122,4.2710378,0.9001863,0.21800253,-0.29542971
2123,4.2730378,0.84459758,0.14897476,-0.32658383
2124,4.2750378,0.81344342,0.1184315,-0.34368807
2125,4.2770379,0.76029813,0.062842764,-0.37789652
2126,4.2790379,0.71326154,0.015195273,-0.40905064
2127,4.2810379,0.69127041,-0.004352415,-0.42004621
2128,4.283038,0.64912069,-0.03733914,-0.44631341
2129,4.285038,0.6289621,-0.047723848,-0.45730901
2130,4.2870379,0.59108847,-0.059330288,-0.47930014
2131,4.2890366,0.55688006,-0.058719423,-0.4994587
2132,4.2910357,0.53733236,-0.055054229,-0.50984341
2133,4.2930348,0.51350862,-0.039171733,-0.51595205
2134,4.2950339,0.50006956,0.002977968,-0.5104543
2135,4.2970339,0.49701524,0.015806139,-0.50373477
2136,4.2990339,0.50495648,0.070173144,-0.47563496
2137,4.3010339,0.52878022,0.134314,-0.44448084
2138,4.3030339,0.54710621,0.17157678,-0.42676574
2139,4.3050339,0.59169936,0.2485458,-0.39194641
2140,4.307034,0.65217501,0.32429308,-0.34857497
2141,4.3090349,0.68882692,0.36277759,-0.32597297
2142,4.3110358,0.76701766,0.42691845,-0.27954721
2143,4.3130362,0.85681486,0.49167016,-0.2233476
2144,4.3150371,0.90140802,0.51915908,-0.19036089
2145,4.3170371,0.99120522,0.57780218,-0.12683089
2146,4.3190367,1.0846676,0.64133215,-0.057803124
2147,4.3210367,1.1310934,0.67737317,-0.024205536
2148,4.3230367,1.2117276,0.74884444,0.045433104
2149,4.3250363,1.2844205,0.82581347,0.10651962
2150,4.3270363,1.3192399,0.86918491,0.13767375
2151,4.3290355,1.3833807,0.97852975,0.20486893
2152,4.3310346,1.4377477,1.1013137,0.2757293
2153,4.3330337,1.4609606,1.1678979,0.31421381
2154,4.3350328,1.4976125,1.2955688,0.38935024
2155,4.3370319,1.5251014,1.4287374,0.4705953
2156,4.3390319,1.5324318,1.4910457,0.51152331
2157,4.3410319,1.5434273,1.6071101,0.5994879
2158,4.3430318,1.5464817,1.7005725,0.68684161
2159,4.3450318,1.5385405,1.7372243,0.73021305
2160,4.3470318,1.5244906,1.7915914,0.81267983
2161,4.3490326,1.5000559,1.8270216,0.89453578
2162,4.3510335,1.486006,1.834352,0.93240947
2163,4.3530344,1.4536302,1.8386281,1.0051024
2164,4.3550353,1.4133132,1.8184695,1.074741
2165,4.3570354,1.3913219,1.8062521,1.1077278
2166,4.3590354,1.3436744,1.7549394,1.1633165
2167,4.3610354,1.2960269,1.6773596,1.2103531
2168,4.3630354,1.2703706,1.6327665,1.2299008
2169,4.3650354,1.2208905,1.5283085,1.2580006
2170,4.3670354,1.1726322,1.4067463,1.2744939
2171,4.3690345,1.1494193,1.3413837,1.2818244
2172,4.3710344,1.101161,1.2033281,1.2867113
2173,4.3730349,1.060233,1.050001,1.2806026
2174,4.3750348,1.0412961,0.97119939,1.2757157
2175,4.3770348,1.0052551,0.80504405,1.2628875
2176,4.3790352,0.96799237,0.6333909,1.2421181
2177,4.3810352,0.95210981,0.55092412,1.2292899
2178,4.3830352,0.92156661,0.37682751,1.2018011
2179,4.3850353,0.89591026,0.21128301,1.1706469
2180,4.3870353,0.88308209,0.12942708,1.1541535
2181,4.3890361,0.8610909,-0.02939789,1.1272755
2182,4.3910369,0.83848894,-0.17722727,1.0979539
2183,4.3930378,0.82932591,-0.25175285,1.0863475
2184,4.3950384,0.81527603,-0.39164099,1.0588585
2185,4.3970393,0.79939353,-0.51075971,1.0344239
2186,4.3990393,0.79145229,-0.56512672,1.0215957
2187,4.4010394,0.78106755,-0.66103256,0.99838287
2188,4.4030394,0.76640683,-0.73616898,0.97700262
2189,4.4050394,0.76029813,-0.76182532,0.96600705
2190,4.4070395,0.75174606,-0.80092067,0.94157243
2191,4.4090386,0.74685913,-0.81374884,0.93179858
2192,4.4110377,0.74075049,-0.82230097,0.90064442
2193,4.4130376,0.73158747,-0.8094728,0.86215991
2194,4.415038,0.72731143,-0.78503817,0.84139049
2195,4.4170379,0.72120279,-0.76793396,0.78885609
2196,4.4190379,0.71448326,-0.72761685,0.73632169
2197,4.4210379,0.71387237,-0.69951707,0.70944363
2198,4.4230378,0.70837462,-0.6359871,0.65080059
2199,4.4250378,0.70470941,-0.55596375,0.59032488
2200,4.4270379,0.7010442,-0.51503575,0.55917078
2201,4.4290388,0.69676816,-0.4197408,0.49319732
2202,4.4310388,0.69676816,-0.31345022,0.4180609
2203,4.4330388,0.69554645,-0.25663975,0.38201985
2204,4.4350389,0.70043337,-0.13202325,0.30688342
2205,4.4370389,0.70959634,0.0017562376,0.231747
2206,4.4390385,0.71570498,0.069562279,0.19020817
2207,4.4410386,0.73036575,0.20883955,0.11201742
2208,4.4430386,0.75541121,0.34933856,0.037491854
2209,4.4450389,0.76885027,0.42080981,-0.00099265599
2210,4.4470389,0.79695004,0.5613088,-0.071853027
2211,4.4490382,0.83115852,0.69631004,-0.13965906
2212,4.4510373,0.84704101,0.75984001,-0.17142406
2213,4.4530364,0.88857985,0.87773699,-0.23189972
2214,4.4550358,0.9313404,0.97852975,-0.29298624
2215,4.4570358,0.95333159,1.0206795,-0.31925344
2216,4.4590363,0.99853557,1.0939833,-0.37423131
2217,4.4610363,1.0455723,1.1471286,-0.42615485
2218,4.4630363,1.0700068,1.1636219,-0.44936773
2219,4.4650362,1.1139891,1.1843914,-0.49151745
2220,4.4670362,1.1567497,1.1843914,-0.52755851
2221,4.469037,1.1787409,1.1727849,-0.5452736
2222,4.4710379,1.2196689,1.1391873,-0.57459509
2223,4.4730379,1.2550991,1.0933725,-0.59292108
2224,4.4750376,1.2691489,1.0628291,-0.60208404
2225,4.4770376,1.2935835,0.99502313,-0.61979914
2226,4.4790377,1.3155746,0.92110842,-0.64117944
2227,4.4810373,1.3198507,0.87956959,-0.65095329
2228,4.4830373,1.3302355,0.7952702,-0.67355531
2229,4.4850374,1.3326789,0.69692087,-0.69676816
2230,4.4870374,1.332068,0.6492734,-0.70654202
2231,4.4890365,1.3229051,0.54481542,-0.7205919
2232,4.4910356,1.3076334,0.44096833,-0.73097664
2233,4.4930347,1.2954161,0.38660133,-0.73219836
2234,4.4950338,1.2654837,0.28764117,-0.72853315
2235,4.4970337,1.2251666,0.19906572,-0.71814847
2236,4.4990341,1.2043972,0.15325081,-0.71081805
2237,4.501034,1.1518627,0.077503525,-0.69065952
2238,4.503034,1.0956632,0.013973542,-0.6680575
2239,4.5050337,1.064509,-0.011071933,-0.65339673
2240,4.5070337,0.99670303,-0.054443367,-0.62590778
2241,4.5090345,0.92217743,-0.072158456,-0.59414279
2242,4.5110354,0.88308209,-0.07582365,-0.57764947
2243,4.5130363,0.80428046,-0.072769322,-0.54466271
2244,4.5150372,0.72792232,-0.048334714,-0.51350862
2245,4.5170372,0.6876052,-0.031841353,-0.49823695
2246,4.5190367,0.60758185,0.0096974857,-0.46830457
2247,4.5210367,0.52755851,0.054901514,-0.44081563
2248,4.5230367,0.49151745,0.077503525,-0.42982006
2249,4.5250367,0.42004621,0.13064881,-0.4078289
2250,4.5270367,0.35224018,0.18257235,-0.39072469
2251,4.5290358,0.32108605,0.21006128,-0.38095084
2252,4.5310349,0.26366472,0.26687175,-0.36873353
2253,4.5330341,0.23678663,0.2943607,-0.3571271
2254,4.5350332,0.18608482,0.34506249,-0.34918585
2255,4.5370323,0.1427134,0.39515346,-0.34246632
2256,4.5390322,0.10789407,0.43974662,-0.33391422
2257,4.5410326,0.09323331,0.46357036,-0.33391422
2258,4.5430326,0.073685624,0.5069418,-0.32780555
2259,4.5450325,0.066966102,0.52587861,-0.32597297
2260,4.5470325,0.05841399,0.56253052,-0.31680998
2261,4.5490334,0.053527068,0.59063035,-0.30214924
2262,4.5510342,0.057192259,0.60162592,-0.2935971
2263,4.5530351,0.05841399,0.61873013,-0.27466029
2264,4.555036,0.068187833,0.62544966,-0.25938866
2265,4.5570361,0.072463892,0.62850398,-0.24778222
2266,4.5590357,0.087124653,0.63216919,-0.23067799
2267,4.5610357,0.10606148,0.63461262,-0.21235204
2268,4.5630358,0.11400273,0.63522351,-0.20135646
2269,4.5650362,0.13843733,0.63766694,-0.17997618
2270,4.5670362,0.15920675,0.63766694,-0.15615243
2271,4.5690353,0.17264579,0.63033658,-0.14882204
2272,4.5710352,0.20318905,0.6162867,-0.12622003
2273,4.5730352,0.23067799,0.58574343,-0.10361802
2274,4.5750352,0.24594963,0.56863916,-0.090789847
2275,4.5770351,0.27527115,0.51854825,-0.074907348
2276,4.5790351,0.30214924,0.4629595,-0.055359662
2277,4.5810351,0.3131448,0.42752931,-0.046196684
2278,4.5830354,0.33452508,0.35239288,-0.033368513
2279,4.5850354,0.35407278,0.26870435,-0.021762075
2280,4.5870355,0.36323574,0.22472206,-0.011377365
2281,4.5890364,0.3833943,0.13675746,-0.0052687125
2282,4.5910373,0.39988765,0.043295074,0.0069485921
2283,4.5930382,0.4096615,-0.0012980887,0.016111571
2284,4.5950391,0.42676574,-0.091706142,0.029550606
2285,4.59704,0.44753516,-0.17234036,0.042378776
2286,4.59904,0.45669812,-0.21082486,0.049098294
2287,4.60104,0.47502407,-0.27802005,0.062537327
2288,4.60304,0.4909066,-0.33299792,0.077198096
2289,4.60504,0.49823695,-0.35498905,0.08391761
2290,4.60704,0.51228684,-0.38919753,0.097967513
2291,4.6090391,0.5238933,-0.41424298,0.11201742
2292,4.6110382,0.52878022,-0.42157337,0.1175152
2293,4.6130382,0.53672147,-0.42768204,0.1333977
2294,4.6150382,0.54649532,-0.4282929,0.14805846
2295,4.6170381,0.54771703,-0.4197408,0.15233453
2296,4.6190384,0.55810177,-0.40752348,0.16088663
2297,4.6210384,0.56665385,-0.38553232,0.17127134
2298,4.6230384,0.57031906,-0.37270415,0.17493653
2299,4.6250383,0.57703859,-0.3366631,0.17799085
2300,4.6270383,0.58864504,-0.2926808,0.18471038
2301,4.6290392,0.59353197,-0.27252227,0.18654297
2302,4.6310392,0.60269493,-0.22304218,0.1877647
2303,4.6330392,0.61430138,-0.17722727,0.18837558
2304,4.6350393,0.62346435,-0.155847,0.18837558
2305,4.6370393,0.63445991,-0.12102768,0.18471038
2306,4.6390393,0.64545548,-0.082543164,0.18287778
2307,4.6410394,0.64973152,-0.064828075,0.18104519
2308,4.6430391,0.66439229,-0.032452215,0.18287778
2309,4.6450391,0.67844224,-0.0019089539,0.18043432
2310,4.6470391,0.68516171,0.017027868,0.18104519
2311,4.6490381,0.69860077,0.051847186,0.17738
2312,4.6510372,0.70654202,0.068340547,0.17738
2313,4.6530363,0.7187593,0.102549,0.17127134
2314,4.6550354,0.72792232,0.13614659,0.16699529
2315,4.6570351,0.73586357,0.16974418,0.16027577
2316,4.6590351,0.73769617,0.18623754,0.15599971
2317,4.6610348,0.74563742,0.21739167,0.15172365
2318,4.6630349,0.75174606,0.24243714,0.14256068
2319,4.6650349,0.75418949,0.25465444,0.14011721
2320,4.6670349,0.76213074,0.27236953,0.13400856
2321,4.6690358,0.76823938,0.29191723,0.1333977
2322,4.6710367,0.77190459,0.29802588,0.13095424
2323,4.6730368,0.77373719,0.31024319,0.13095424
2324,4.6750368,0.77862412,0.31574097,0.13095424
2325,4.6770369,0.7774024,0.31940615,0.13400856
2326,4.6790369,0.78167844,0.31574097,0.13217597
2327,4.6810369,0.78167844,0.31085405,0.12851077
2328,4.6830369,0.78228933,0.3010802,0.12728904
2329,4.6850369,0.78290015,0.28764117,0.12423472
2330,4.6870369,0.78045672,0.28092167,0.12545645
2331,4.689036,0.78228933,0.26687175,0.12484559
2332,4.6910351,0.78167844,0.2570979,0.12606731
2333,4.6930342,0.78228933,0.25098926,0.12545645
2334,4.6950333,0.78473276,0.23877195,0.13217597
2335,4.6970333,0.78961968,0.22960897,0.13584116
2336,4.6990333,0.79267401,0.22716552,0.14072809
2337,4.7010333,0.79450661,0.22350033,0.14866933
2338,4.7030332,0.79878265,0.2186134,0.15599971
2339,4.7050332,0.80122614,0.22350033,0.16088663
2340,4.7070332,0.80550218,0.22472206,0.16882788
2341,4.7090341,0.81161082,0.22899811,0.18043432
2342,4.711035,0.81405431,0.22838724,0.18593211
2343,4.7130359,0.81344342,0.23144157,0.19326249
2344,4.7150368,0.81588691,0.2308307,0.20303634
2345,4.7170372,0.81283259,0.23144157,0.20914499
2346,4.7190368,0.81405431,0.22899811,0.21891883
2347,4.7210371,0.81466514,0.22472206,0.22563834
2348,4.7230371,0.81466514,0.22533292,0.231747
2349,4.7250371,0.8103891,0.22288945,0.24029912
2350,4.727037,0.8085565,0.21922426,0.25495988
2351,4.7290362,0.8085565,0.21800253,0.26045766
2352,4.7310353,0.80366957,0.21006128,0.27328584
2353,4.7330344,0.79756093,0.20761782,0.28489229
2354,4.7350334,0.79206318,0.20395264,0.2934444
2355,4.7370328,0.7890088,0.19967657,0.30810517
2356,4.7390328,0.78228933,0.19723311,0.32459852
2357,4.7410329,0.77862412,0.19662225,0.33498323
2358,4.7430329,0.77251548,0.19906572,0.35330918
2359,4.7450329,0.76335245,0.20028745,0.37041342
2360,4.7470329,0.76213074,0.19967657,0.37713292
2361,4.7490338,0.75418949,0.20761782,0.38873938
2362,4.7510347,0.74136132,0.21372648,0.39606977
2363,4.7530356,0.73647439,0.2186134,0.40156755
2364,4.7550364,0.724868,0.23021984,0.40706533
2365,4.7570364,0.71142894,0.24549147,0.40828705
2366,4.759036,0.70593113,0.24976753,0.41011965
2367,4.761036,0.69004864,0.26565003,0.41317397
2368,4.7630358,0.67477703,0.28886291,0.41317397
2369,4.7650358,0.66744661,0.29802588,0.41317397
2370,4.7670358,0.65095329,0.32673654,0.41745004
2371,4.7690348,0.6350708,0.35666895,0.42111522
2372,4.7710354,0.62529695,0.3731623,0.42355868
2373,4.7730354,0.60941446,0.40553817,0.42600214
2374,4.7750353,0.5959754,0.44035748,0.426613
2375,4.7770349,0.58681244,0.45929432,0.42783475
2376,4.7790353,0.56970823,0.49167016,0.42539129
2377,4.7810352,0.55382568,0.52282429,0.42172611
2378,4.7830352,0.54466271,0.54298282,0.42294782
2379,4.7850352,0.53611064,0.57658041,0.4180609
2380,4.7870352,0.52206069,0.61017799,0.40767619
2381,4.7890365,0.51961726,0.62606055,0.40278926
2382,4.7910374,0.50984341,0.64988428,0.3917937
2383,4.7930383,0.49884784,0.66515589,0.38263071
2384,4.7950392,0.49701524,0.6688211,0.37468946
2385,4.7970398,0.48785225,0.67431885,0.36247218
2386,4.7990398,0.47685668,0.67615145,0.35086572
2387,4.8010394,0.47685668,0.67431885,0.34475708
2388,4.8030394,0.47013718,0.67126453,0.33070716
2389,4.8050393,0.46830457,0.67554063,0.31726813
2390,4.8070394,0.46708283,0.6822601,0.31238121
2391,4.8090385,0.46586111,0.68164927,0.29649872
2392,4.8110376,0.46708283,0.67859495,0.28855747
2393,4.8130376,0.46769372,0.66087985,0.28000537
2394,4.8150376,0.46647197,0.63949955,0.27145323
2395,4.8170376,0.46525025,0.62789309,0.26839891
2396,4.819038,0.46402851,0.59918243,0.26534459
2397,4.821038,0.46280679,0.56680661,0.26351199
2398,4.8230383,0.46097419,0.55031323,0.26351199
2399,4.8250384,0.45853072,0.51549393,0.26656634
2400,4.8270384,0.45669812,0.4977788,0.26290113
2401,4.8290393,0.45914158,0.51121783,0.26045766
2402,4.8310388,0.45120034,0.51610476,0.25434902
2403,4.8330388,0.43715045,0.50633091,0.25068381
2404,4.8350388,0.43409613,0.49716794,0.25251642
2405,4.8370388,0.41577014,0.46967903,0.2561816
2406,4.8390388,0.39683333,0.43424883,0.26717719
2407,4.8410388,0.38767037,0.41286856,0.26717719
2408,4.8430388,0.36079228,0.36216673,0.2757293
2409,4.8450388,0.33880115,0.31390837,0.28122708
2410,4.8470388,0.32841644,0.28947377,0.28122708
2411,4.8490375,0.30153835,0.24182628,0.27878362
2412,4.8510366,0.28076893,0.19845484,0.27145323
2413,4.8530357,0.26977336,0.17768542,0.26534459
2414,4.8550348,0.24717134,0.13675746,0.25434902
2415,4.8570339,0.22823453,0.10377073,0.23907739
2416,4.8590338,0.21907155,0.08666651,0.23052527
2417,4.8610342,0.20685424,0.067118816,0.21097758
2418,4.8630342,0.20807597,0.102549,0.17615826
2419,4.8650342,0.20196733,0.11720977,0.15599971
