,gyr_time,gyrX,gyrY,gyrZ
0,0.018195274,-0.016646078,-0.031001411,0.010231993
1,0.020195274,-0.016646078,-0.031001411,0.010231993
2,0.022195274,-0.016646078,-0.031001411,0.010231993
3,0.024196607,-0.00870483,-0.012064588,-0.0056505036
4,0.026190357,-0.0080939643,-0.0059559359,-0.0068722339
5,0.028185357,-0.0068722339,-0.0059559359,-0.0062613687
6,0.03018119,-0.0032070426,-0.00045814895,-0.010537425
7,0.032177618,-0.0032070426,0.001985312,-0.014202617
8,0.034174493,-0.00076358154,0.0025961774,-0.016646078
9,0.036174604,0.00045814895,0.0056505036,-0.016646078
10,0.038174704,0.0022907446,0.0062613687,-0.02031127
11,0.040174794,0.0010690142,0.0093156947,-0.018478673
12,0.042174877,0.00290161,0.010537425,-0.022754731
13,0.044174953,0.0035124752,0.010537425,-0.026419923
14,0.046174524,0.0053450707,0.012370021,-0.027030786
15,0.04817459,0.0041233404,0.011148291,-0.027641652
16,0.050174652,0.0047342055,0.014813482,-0.029474247
17,0.052173122,0.0041233404,0.011759156,-0.030085113
18,0.054173177,0.0035124752,0.0099265603,-0.03191771
19,0.056173124,0.0047342055,0.0099265603,-0.032528576
20,0.058173074,0.0035124752,0.0038179078,-0.033750303
21,0.060173026,0.0053450707,0.00015271631,-0.033139441
22,0.06217298,0.0016798794,-0.0083993971,-0.034361169
23,0.064172936,0.0016798794,-0.012675454,-0.036193766
24,0.066171811,0.0016798794,-0.01817324,-0.037415497
25,0.068171771,0.00045814895,-0.027947085,-0.034972034
26,0.070171732,0.0016798794,-0.02977968,-0.034972034
27,0.072171657,0.00045814895,-0.038331795,-0.033750303
28,0.074171585,-0.0013744468,-0.047494773,-0.034972034
29,0.076171516,-0.00015271631,-0.051770829,-0.033750303
30,0.078171449,-0.00015271631,-0.062155537,-0.034972034
31,0.080171382,-0.00076358154,-0.059712078,-0.033139441
32,0.082171315,-0.00076358154,-0.072540246,-0.034361169
33,0.084171115,-0.00015271631,-0.074983709,-0.034361169
34,0.086171881,0.00045814895,-0.081703223,-0.03191771
35,0.088172647,-0.00076358154,-0.087201014,-0.034361169
36,0.090173413,-0.0032070426,-0.092087939,-0.032528576
37,0.092174179,-0.0013744468,-0.092087939,-0.030085113
38,0.094174945,-0.0032070426,-0.094531395,-0.031306844
39,0.096174845,-0.0038179078,-0.096974857,-0.031306844
40,0.098174745,-0.0056505036,-0.09514226,-0.03191771
41,0.10017464,-0.0068722339,-0.096363991,-0.028252518
42,0.10217454,-0.011148291,-0.09514226,-0.029474247
43,0.10417451,-0.010537425,-0.093920529,-0.029474247
44,0.10617381,-0.011148291,-0.090255342,-0.026419923
45,0.10817291,-0.012980887,-0.084757552,-0.025809057
46,0.11017288,-0.014202617,-0.082924955,-0.025809057
47,0.11217374,-0.015424347,-0.07620544,-0.022754731
48,0.11417371,-0.014813482,-0.073761977,-0.024587326
49,0.11617374,-0.016646078,-0.068264194,-0.022143865
50,0.11817378,-0.019700404,-0.063377269,-0.021532999
51,0.12017381,-0.017867809,-0.056046885,-0.022143865
52,0.12217384,-0.019089539,-0.051159963,-0.020922136
53,0.12417387,-0.017867809,-0.046273042,-0.019089539
54,0.12617477,-0.017256944,-0.040775254,-0.017256944
55,0.12817481,-0.017867809,-0.038331795,-0.017256944
56,0.13017484,-0.018478673,-0.032834008,-0.016035212
57,0.13217544,-0.022143865,-0.027336219,-0.015424347
58,0.13417554,-0.019700404,-0.02611449,-0.017256944
59,0.13617564,-0.021532999,-0.024892759,-0.011759156
60,0.13817534,-0.021532999,-0.019394971,-0.0093156947
61,0.14017544,-0.02031127,-0.020616703,-0.012370021
62,0.14217554,-0.019700404,-0.017562376,-0.0080939643
63,0.14417564,-0.020922136,-0.016340645,-0.0074830991
64,0.14617487,-0.021532999,-0.01450805,-0.0074830991
65,0.14817411,-0.02031127,-0.01450805,-0.0080939643
66,0.15017331,-0.022754731,-0.015118915,-0.0068722339
67,0.15217251,-0.022143865,-0.01450805,-0.0038179078
68,0.15417217,-0.022754731,-0.015729779,-0.0050396384
69,0.15617224,-0.02397646,-0.015729779,-0.0038179078
70,0.1581723,-0.021532999,-0.016951511,-0.0044287732
71,0.16017237,-0.02031127,-0.018784106,-0.0025961774
72,0.16217244,-0.020922136,-0.016340645,-0.0044287732
73,0.16417244,-0.024587326,-0.015118915,-0.0013744468
74,0.16617337,-0.022143865,-0.016951511,-0.0013744468
75,0.16817427,-0.022143865,-0.016340645,0.00045814895
76,0.1701743,-0.022143865,-0.016951511,0.0010690142
77,0.17217434,-0.022754731,-0.017562376,0.0010690142
78,0.17417437,-0.024587326,-0.01817324,0.0010690142
79,0.1761744,-0.02397646,-0.01817324,0.0010690142
80,0.17817443,-0.025809057,-0.018784106,0.00290161
81,0.18017447,-0.027641652,-0.019394971,0.0035124752
82,0.18217447,-0.026419923,-0.021227567,0.00045814895
83,0.18417447,-0.029474247,-0.021227567,0.0035124752
84,0.1861736,-0.03191771,-0.017562376,0.00290161
85,0.18817273,-0.032528576,-0.01817324,0.0022907446
86,0.19017187,-0.030695979,-0.017562376,0.0010690142
87,0.19217047,-0.030695979,-0.020005837,0.0022907446
88,0.19417043,-0.034361169,-0.016340645,0.00045814895
89,0.1961704,-0.03191771,-0.016340645,0.0010690142
90,0.19817076,-0.033139441,-0.015118915,0.0010690142
91,0.20017073,-0.032528576,-0.01450805,-0.00076358154
92,0.2021707,-0.03191771,-0.013286319,-0.00076358154
93,0.20417066,-0.034361169,-0.01450805,-0.00076358154
94,0.2061715,-0.032528576,-0.015729779,0.0010690142
95,0.20817233,-0.031306844,-0.013897184,-0.00076358154
96,0.21017319,-0.032528576,-0.015729779,-0.0025961774
97,0.21217406,-0.031306844,-0.020005837,-0.001985312
98,0.21417449,-0.031306844,-0.020616703,-0.0025961774
99,0.21617433,-0.030695979,-0.020616703,-0.0032070426
100,0.21817436,-0.030085113,-0.026725354,-0.0050396384
101,0.22017439,-0.029474247,-0.026725354,-0.0025961774
102,0.22217403,-0.028252518,-0.032834008,-0.0044287732
103,0.22417406,-0.030085113,-0.035277467,-0.0038179078
104,0.22617319,-0.027030786,-0.039553523,-0.0056505036
105,0.22817229,-0.026419923,-0.041996986,-0.0044287732
106,0.23017139,-0.025809057,-0.046883907,-0.0062613687
107,0.23217049,-0.025809057,-0.04932737,-0.0062613687
108,0.23416962,-0.025809057,-0.052381694,-0.0068722339
109,0.23616959,-0.022143865,-0.053603426,-0.0074830991
110,0.23816956,-0.021532999,-0.055436023,-0.0062613687
111,0.24016952,-0.02031127,-0.056046885,-0.0062613687
112,0.24216952,-0.018478673,-0.059101213,-0.0056505036
113,0.24416956,-0.018478673,-0.05665775,-0.0062613687
114,0.24617046,-0.015424347,-0.05665775,-0.0056505036
115,0.24817136,-0.014813482,-0.051770829,-0.0062613687
116,0.25017216,-0.014813482,-0.049938235,-0.0074830991
117,0.25217306,-0.014202617,-0.046273042,-0.0062613687
118,0.25417309,-0.0093156947,-0.042607851,-0.0068722339
119,0.25617312,-0.0099265603,-0.037110064,-0.0074830991
120,0.25817409,-0.0080939643,-0.035277467,-0.0080939643
121,0.26017409,-0.0080939643,-0.027947085,-0.0068722339
122,0.26217409,-0.0062613687,-0.020616703,-0.0062613687
123,0.26417409,-0.0056505036,-0.018784106,-0.0068722339
124,0.26617322,-0.0056505036,-0.013286319,-0.0062613687
125,0.26817322,-0.0032070426,-0.0047342055,-0.0068722339
126,0.27017322,-0.0050396384,-0.0022907446,-0.0068722339
127,0.27217322,-0.0032070426,0.0074830991,-0.0074830991
128,0.27417319,-0.0032070426,0.011148291,-0.0062613687
129,0.27617335,-0.0032070426,0.016035212,-0.0074830991
130,0.27817332,-0.0050396384,0.023365596,-0.0038179078
131,0.28017328,-0.0050396384,0.027641652,-0.0032070426
132,0.28217365,-0.0074830991,0.032528576,-0.0044287732
133,0.28417362,-0.0068722339,0.0355829,-0.0044287732
134,0.28617485,-0.0080939643,0.038026363,-0.0038179078
135,0.28817572,-0.0080939643,0.03924809,-0.0025961774
136,0.29017658,-0.0093156947,0.044135015,-0.0025961774
137,0.29217748,-0.010537425,0.047800206,-0.0013744468
138,0.29417795,-0.010537425,0.049632803,-0.0025961774
139,0.29617798,-0.011148291,0.052076261,-0.00015271631
140,0.29817751,-0.011759156,0.053908858,0.00045814895
141,0.30017755,-0.012980887,0.056352317,0.0022907446
142,0.30217758,-0.014202617,0.060628377,0.0022907446
143,0.30417758,-0.014813482,0.06612616,0.0041233404
144,0.30617668,-0.016035212,0.064904429,0.0035124752
145,0.30817578,-0.014813482,0.068569623,0.0041233404
146,0.31017584,-0.019089539,0.07040222,0.0035124752
147,0.31217581,-0.018478673,0.073456548,0.0065668016
148,0.31417578,-0.020922136,0.075289145,0.0059559359
149,0.31617574,-0.022754731,0.077121735,0.0077885319
150,0.31817478,-0.020922136,0.077121735,0.0077885319
151,0.32017478,-0.02031127,0.081397794,0.0071776668
152,0.32217481,-0.023365596,0.08200866,0.0059559359
153,0.32417484,-0.02397646,0.083841257,0.0071776668
154,0.32617574,-0.024587326,0.083230391,0.0096211275
155,0.32817578,-0.028252518,0.085062988,0.0096211275
156,0.33017581,-0.026419923,0.083841257,0.010231993
157,0.33217584,-0.030085113,0.083230391,0.0083993971
158,0.33417587,-0.031306844,0.080786929,0.0090102628
159,0.33617591,-0.029474247,0.08200866,0.012064588
160,0.33817591,-0.032528576,0.080176063,0.0090102628
161,0.34017591,-0.032528576,0.076510869,0.012064588
162,0.34217591,-0.032528576,0.0777326,0.012064588
163,0.34417591,-0.036804631,0.072234817,0.010231993
164,0.34617464,-0.0355829,0.067958757,0.010842858
165,0.34817377,-0.034361169,0.06612616,0.0083993971
166,0.35017291,-0.036193766,0.05879578,0.0090102628
167,0.35217201,-0.0355829,0.058184914,0.0083993971
168,0.35417237,-0.036804631,0.052076261,0.0096211275
169,0.35617207,-0.0355829,0.04352415,0.0090102628
170,0.35817254,-0.033750303,0.040469822,0.0096211275
171,0.3601725,-0.032528576,0.033750303,0.0090102628
172,0.36217247,-0.033139441,0.028252518,0.0090102628
173,0.36417244,-0.03191771,0.027030786,0.010842858
174,0.3661729,-0.030695979,0.022754731,0.0090102628
175,0.36817377,-0.030085113,0.020922136,0.0083993971
176,0.3701738,-0.028252518,0.017256944,0.0083993971
177,0.37217383,-0.028252518,0.012370021,0.0090102628
178,0.37417387,-0.028863383,0.014202617,0.0083993971
179,0.3761739,-0.028252518,0.012980887,0.0096211275
180,0.37817393,-0.025809057,0.012370021,0.0071776668
181,0.38017397,-0.027030786,0.015424347,0.0090102628
182,0.38217397,-0.028252518,0.016035212,0.0083993971
183,0.38417393,-0.026419923,0.020922136,0.0041233404
184,0.38617303,-0.027641652,0.025809057,-0.00015271631
185,0.38817213,-0.030085113,0.031306844,0.0053450707
186,0.39017123,-0.029474247,0.038026363,0.0053450707
187,0.39217033,-0.028252518,0.044745877,0.0071776668
188,0.3941703,-0.028252518,0.050243668,0.0059559359
189,0.39617026,-0.028863383,0.063682705,0.0065668016
190,0.39817026,-0.028252518,0.073456548,0.0047342055
191,0.4001703,-0.028252518,0.080786929,0.0035124752
192,0.40217033,-0.027030786,0.097280294,0.0041233404
193,0.40417036,-0.026419923,0.11010846,0.00045814895
194,0.40617126,-0.026419923,0.11682798,-0.00076358154
195,0.40817216,-0.027030786,0.12843442,-0.001985312
196,0.4101736,-0.025809057,0.14004086,-0.0044287732
197,0.4121745,-0.027641652,0.14737125,-0.0062613687
198,0.41417453,-0.029474247,0.15836681,-0.0050396384
199,0.4161763,-0.026419923,0.16997325,-0.0099265603
200,0.4181763,-0.026419923,0.17180584,-0.0099265603
201,0.4201763,-0.027030786,0.18157969,-0.012370021
202,0.4221763,-0.025809057,0.18952094,-0.013591751
203,0.4241763,-0.024587326,0.19257528,-0.015424347
204,0.42617583,-0.024587326,0.1956296,-0.017256944
205,0.42817496,-0.020922136,0.1956296,-0.021532999
206,0.43017406,-0.023365596,0.19807306,-0.024587326
207,0.43217316,-0.019700404,0.19807306,-0.026419923
208,0.43417223,-0.019700404,0.19746219,-0.027030786
209,0.43617263,-0.018478673,0.19624045,-0.028252518
210,0.43817219,-0.016035212,0.18768835,-0.027030786
211,0.44017216,-0.011759156,0.18157969,-0.027641652
212,0.44217212,-0.011759156,0.17730364,-0.027641652
213,0.44417172,-0.0099265603,0.16875152,-0.028863383
214,0.44617302,-0.0056505036,0.15347989,-0.03191771
215,0.44817393,-0.0044287732,0.14737125,-0.03191771
216,0.45017482,-0.0025961774,0.13087788,-0.031306844
217,0.45217573,-0.00015271631,0.11621711,-0.033750303
218,0.45417576,0.0010690142,0.107665,-0.03191771
219,0.45617579,0.0041233404,0.088728175,-0.033750303
220,0.45817582,0.0053450707,0.07040222,-0.031306844
221,0.46017582,0.0059559359,0.061850104,-0.031306844
222,0.46217576,0.0077885319,0.040469822,-0.030085113
223,0.46417572,0.0083993971,0.024587326,-0.030085113
224,0.46617479,0.0071776668,0.015424347,-0.027641652
225,0.46817592,0.0059559359,-0.00045814895,-0.027641652
226,0.47017536,0.0065668016,-0.015118915,-0.025198191
227,0.47217532,0.0053450707,-0.021227567,-0.025809057
228,0.47417499,0.0022907446,-0.033444874,-0.025198191
229,0.47617319,0.0035124752,-0.048105638,-0.025198191
230,0.47817322,0.0035124752,-0.054825157,-0.02397646
231,0.48017325,-0.001985312,-0.065820731,-0.022754731
232,0.48217329,-0.0032070426,-0.070707649,-0.021532999
233,0.48417332,-0.0038179078,-0.082924955,-0.021532999
234,0.48617422,-0.0099265603,-0.090866208,-0.022143865
235,0.48817512,-0.0099265603,-0.094531395,-0.022143865
236,0.49017602,-0.014202617,-0.10186178,-0.022143865
237,0.49217692,-0.018478673,-0.1085813,-0.022143865
238,0.49417782,-0.02031127,-0.11102476,-0.023365596
239,0.49617738,-0.022754731,-0.11774427,-0.023365596
240,0.49817779,-0.027030786,-0.11957687,-0.026419923
241,0.50017778,-0.027030786,-0.12324207,-0.027030786
242,0.50217778,-0.028863383,-0.11957687,-0.027641652
243,0.50417818,-0.030085113,-0.12202033,-0.030695979
244,0.50617688,-0.030695979,-0.12140947,-0.029474247
245,0.50817598,-0.030085113,-0.11896601,-0.031306844
246,0.51017595,-0.032528576,-0.11407909,-0.033750303
247,0.51217592,-0.031306844,-0.11163563,-0.032528576
248,0.51417588,-0.025809057,-0.10308351,-0.03191771
249,0.51617585,-0.022143865,-0.098196588,-0.031306844
250,0.51817582,-0.022754731,-0.09514226,-0.032528576
251,0.52017578,-0.017256944,-0.087201014,-0.034972034
252,0.52217581,-0.014202617,-0.079870634,-0.034361169
253,0.52417581,-0.013591751,-0.081092358,-0.034972034
254,0.52617675,-0.0080939643,-0.074372843,-0.036193766
255,0.52817561,-0.001985312,-0.070707649,-0.036193766
256,0.53017565,-0.001985312,-0.068264194,-0.037415497
257,0.53217568,0.0010690142,-0.063988134,-0.037415497
258,0.53417601,0.0071776668,-0.062766403,-0.038637228
259,0.53617598,0.0083993971,-0.063377269,-0.037415497
260,0.53817598,0.011453724,-0.06093381,-0.036193766
261,0.54017598,0.015118915,-0.06093381,-0.036804631
262,0.54217594,0.018784106,-0.061544672,-0.0355829
263,0.54417591,0.020616703,-0.062155537,-0.03191771
264,0.54617501,0.022449298,-0.065820731,-0.032528576
265,0.54817411,0.021838432,-0.067653328,-0.03191771
266,0.55017321,0.024281893,-0.068264194,-0.03191771
267,0.55217231,0.022449298,-0.07192938,-0.028252518
268,0.55417231,0.021838432,-0.073151112,-0.027030786
269,0.55617234,0.023671029,-0.073761977,-0.025809057
270,0.55817238,0.021227567,-0.07620544,-0.023365596
271,0.56017214,0.018784106,-0.075594574,-0.023365596
272,0.56217218,0.016340645,-0.078038037,-0.02397646
273,0.56417221,0.015118915,-0.081092358,-0.022143865
274,0.56617271,0.015118915,-0.081092358,-0.022754731
275,0.56817361,0.011453724,-0.079870634,-0.022754731
276,0.57017364,0.0077885319,-0.079259768,-0.023365596
277,0.57217364,0.0077885319,-0.079870634,-0.024587326
278,0.57417364,0.0047342055,-0.079259768,-0.026419923
279,0.57617364,-0.00076358154,-0.080481499,-0.027030786
280,0.57817364,0.00045814895,-0.076816306,-0.028252518
281,0.58017324,-0.001985312,-0.078038037,-0.030085113
282,0.58217324,-0.0056505036,-0.074372843,-0.030085113
283,0.58417324,-0.0068722339,-0.069485925,-0.030695979
284,0.58617231,-0.011148291,-0.067653328,-0.032528576
285,0.58817141,-0.0099265603,-0.068264194,-0.033750303
286,0.59017051,-0.011148291,-0.062155537,-0.034972034
287,0.59216961,-0.014202617,-0.058490347,-0.036193766
288,0.59416971,-0.012980887,-0.053603426,-0.038637228
289,0.59617057,-0.011759156,-0.053603426,-0.038026363
290,0.59817054,-0.012980887,-0.04932737,-0.03924809
291,0.6001705,-0.010537425,-0.044440448,-0.038637228
292,0.6021705,-0.0093156947,-0.042607851,-0.039858956
293,0.60417054,-0.0099265603,-0.035888333,-0.041080687
294,0.60617144,-0.011148291,-0.035277467,-0.04352415
295,0.60817234,-0.010537425,-0.029168816,-0.045356743
296,0.61017324,-0.00870483,-0.023671029,-0.045967609
297,0.61217414,-0.010537425,-0.018784106,-0.046578474
298,0.61417417,-0.00870483,-0.016340645,-0.046578474
299,0.61617417,-0.0062613687,-0.012064588,-0.045967609
300,0.61817417,-0.0032070426,-0.010842858,-0.049021937
301,0.6201744,-0.001985312,-0.0071776668,-0.049021937
302,0.62217437,0.0035124752,-0.0041233404,-0.04718934
303,0.62417434,0.0071776668,-0.00290161,-0.049632803
304,0.62617384,0.0083993971,-0.0010690142,-0.047800206
305,0.62817294,0.0090102628,0.0032070426,-0.047800206
306,0.63017204,0.01450805,0.0056505036,-0.04718934
307,0.63217117,0.015729779,0.0080939643,-0.045967609
308,0.63417034,0.017562376,0.010537425,-0.04352415
309,0.63617037,0.017562376,0.012980887,-0.044745877
310,0.6381695,0.020616703,0.017867809,-0.041080687
311,0.64016993,0.020005837,0.021532999,-0.038026363
312,0.64216997,0.021227567,0.020922136,-0.036804631
313,0.64417,0.019394971,0.019089539,-0.034361169
314,0.64617093,0.01817324,0.024587326,-0.03191771
315,0.64817183,0.01817324,0.026419923,-0.031306844
316,0.6501727,0.015118915,0.027641652,-0.028252518
317,0.65217356,0.015118915,0.03191771,-0.023365596
318,0.65417343,0.012675454,0.028863383,-0.024587326
319,0.6561729,0.0096211275,0.033750303,-0.02031127
320,0.6581729,0.0071776668,0.038637228,-0.019089539
321,0.6601729,0.0059559359,0.040469822,-0.017256944
322,0.6621729,-0.00076358154,0.038026363,-0.016035212
323,0.66417286,-0.001985312,0.038637228,-0.017867809
324,0.66617196,-0.0044287732,0.036804631,-0.014202617
325,0.66817193,-0.0062613687,0.034972034,-0.015424347
326,0.6701719,-0.0080939643,0.034972034,-0.013591751
327,0.67217186,-0.010537425,0.033139441,-0.012370021
328,0.67417183,-0.012370021,0.033750303,-0.013591751
329,0.67617179,-0.012980887,0.032528576,-0.010537425
330,0.67817176,-0.012370021,0.03191771,-0.011148291
331,0.68017176,-0.013591751,0.031306844,-0.010537425
332,0.68217179,-0.013591751,0.031306844,-0.0099265603
333,0.68417183,-0.014813482,0.028863383,-0.011759156
334,0.68617369,-0.015424347,0.031306844,-0.012980887
335,0.68817459,-0.014202617,0.033139441,-0.012370021
336,0.69017549,-0.014813482,0.0355829,-0.013591751
337,0.69217639,-0.014202617,0.038637228,-0.013591751
338,0.69417726,-0.011148291,0.040469822,-0.016035212
339,0.69617726,-0.010537425,0.04352415,-0.014813482
340,0.69817812,-0.0093156947,0.046578474,-0.013591751
341,0.70017809,-0.0068722339,0.05085453,-0.012980887
342,0.70217806,-0.0050396384,0.051465396,-0.014813482
343,0.70417802,-0.0038179078,0.05879578,-0.011759156
344,0.70617709,-0.0013744468,0.060628377,-0.012370021
345,0.70817619,0.0047342055,0.064293563,-0.011148291
346,0.71017535,0.0065668016,0.068569623,-0.0099265603
347,0.71217535,0.010842858,0.07040222,-0.00870483
348,0.71417539,0.011453724,0.073456548,-0.0099265603
349,0.71617542,0.012675454,0.0777326,-0.0093156947
350,0.71817545,0.015118915,0.080786929,-0.00870483
351,0.72017549,0.015729779,0.08200866,-0.0099265603
352,0.72217552,0.017562376,0.084452122,-0.0080939643
353,0.72417555,0.01817324,0.087506443,-0.0093156947
354,0.72617645,0.020005837,0.086895578,-0.0093156947
355,0.72817645,0.01817324,0.08933904,-0.0099265603
356,0.73017645,0.016340645,0.090560772,-0.011148291
357,0.73217645,0.018784106,0.089949906,-0.012980887
358,0.73417645,0.019394971,0.091171637,-0.013591751
359,0.73617645,0.013897184,0.094225965,-0.014202617
360,0.73817645,0.016951511,0.0936151,-0.011759156
361,0.74017645,0.016340645,0.093004234,-0.012370021
362,0.74217642,0.016340645,0.096058562,-0.011759156
363,0.74417638,0.012064588,0.094836831,-0.012370021
364,0.74617452,0.013897184,0.095447697,-0.013591751
365,0.74817362,0.013286319,0.0936151,-0.016035212
366,0.75017272,0.010842858,0.096669428,-0.015424347
367,0.75217182,0.010842858,0.096058562,-0.017256944
368,0.75417178,0.010231993,0.093004234,-0.018478673
369,0.75617135,0.010231993,0.093004234,-0.018478673
370,0.75817135,0.0096211275,0.088728175,-0.017867809
371,0.76017138,0.0083993971,0.086284719,-0.018478673
372,0.76217141,0.0077885319,0.082619525,-0.021532999
373,0.76417145,0.0065668016,0.081397794,-0.02031127
374,0.76617238,0.0047342055,0.078343466,-0.020922136
375,0.76817328,0.0065668016,0.072845683,-0.024587326
376,0.77017415,0.0071776668,0.072234817,-0.027030786
377,0.77217418,0.0071776668,0.067958757,-0.027641652
378,0.77417418,0.0059559359,0.065515295,-0.026419923
379,0.77617414,0.0065668016,0.063682705,-0.024587326
380,0.77817411,0.0083993971,0.064904429,-0.02397646
381,0.78017408,0.0096211275,0.06307184,-0.023365596
382,0.78217404,0.0077885319,0.064904429,-0.024587326
383,0.78417401,0.011453724,0.063682705,-0.02397646
384,0.78617308,0.010231993,0.06307184,-0.022754731
385,0.78817221,0.012064588,0.061850104,-0.023365596
386,0.79017134,0.013286319,0.063682705,-0.022754731
387,0.79217047,0.01450805,0.061239243,-0.024587326
388,0.79417047,0.012675454,0.063682705,-0.02031127
389,0.79617047,0.013897184,0.06246097,-0.02031127
390,0.79817047,0.013897184,0.060017511,-0.019089539
391,0.80017047,0.01450805,0.060628377,-0.017867809
392,0.80217047,0.013897184,0.060017511,-0.018478673
393,0.80417047,0.016340645,0.060628377,-0.016646078
394,0.80617134,0.016340645,0.058184914,-0.016646078
395,0.80817224,0.01450805,0.061850104,-0.016035212
396,0.81017314,0.01450805,0.061239243,-0.016035212
397,0.81217404,0.015118915,0.060628377,-0.012980887
398,0.81417407,0.013286319,0.05879578,-0.012980887
399,0.81617451,0.013286319,0.060628377,-0.012370021
400,0.81817454,0.012064588,0.061850104,-0.0093156947
401,0.82017454,0.013897184,0.05879578,-0.010537425
402,0.8221745,0.011453724,0.061850104,-0.0080939643
403,0.82417447,0.011453724,0.061239243,-0.0056505036
404,0.82617354,0.0090102628,0.06246097,-0.0062613687
405,0.82817264,0.0047342055,0.06307184,-0.0056505036
406,0.83017174,0.0053450707,0.064904429,-0.0038179078
407,0.83217084,0.00290161,0.06307184,-0.0032070426
408,0.83416997,0.00290161,0.063682705,-0.0032070426
409,0.83617027,0.00045814895,0.061850104,0.00290161
410,0.8381703,0.0010690142,0.061239243,0.0022907446
411,0.84017034,-0.0025961774,0.06246097,0.00290161
412,0.84217037,-0.0025961774,0.061239243,0.0065668016
413,0.8441704,-0.001985312,0.060017511,0.0053450707
414,0.84617134,-0.0068722339,0.055741455,0.0041233404
415,0.84817224,-0.0050396384,0.053297993,0.0041233404
416,0.85017314,-0.0032070426,0.050243668,0.0041233404
417,0.85217404,-0.0056505036,0.047800206,0.00290161
418,0.85417404,-0.0032070426,0.041691553,0.0065668016
419,0.85617404,-0.0038179078,0.039858956,0.0053450707
420,0.85817404,-0.0044287732,0.0355829,0.0059559359
421,0.86017404,-0.0025961774,0.028863383,0.0035124752
422,0.86217404,-0.0025961774,0.024587326,0.0022907446
423,0.86417404,-0.0025961774,0.022754731,0.0022907446
424,0.86617317,-0.00015271631,0.018478673,0.0053450707
425,0.86817313,0.0016798794,0.012980887,0.0059559359
426,0.8701731,0.0047342055,0.0050396384,0.0047342055
427,0.87217307,0.0047342055,0.0044287732,0.0047342055
428,0.87417303,0.0071776668,-0.0010690142,0.0071776668
429,0.876173,0.0090102628,-0.0065668016,0.0053450707
430,0.87817296,0.0077885319,-0.0096211275,0.0041233404
431,0.88017293,0.012675454,-0.013286319,0.0047342055
432,0.88217293,0.013286319,-0.018784106,0.0053450707
433,0.88417426,0.012675454,-0.021227567,0.0065668016
434,0.88617493,0.016951511,-0.028557951,0.0022907446
435,0.88817583,0.017562376,-0.031612277,0.0041233404
436,0.89017646,0.019394971,-0.033444874,0.0035124752
437,0.89217736,0.021227567,-0.040164389,0.0035124752
438,0.89417823,0.023671029,-0.04505131,0.0022907446
439,0.89617796,0.021838432,-0.045662176,0.00045814895
440,0.89817796,0.023060163,-0.048716504,0.0022907446
441,0.90017793,0.023671029,-0.052381694,0.0035124752
442,0.90217789,0.024281893,-0.054214291,0.0035124752
443,0.90417786,0.024892759,-0.057879481,0.00045814895
444,0.90617696,0.023671029,-0.060322944,0.0022907446
445,0.90817606,0.025503624,-0.062155537,0.0022907446
446,0.91017602,0.025503624,-0.065820731,-0.00015271631
447,0.91217599,0.023671029,-0.060322944,-0.001985312
448,0.91417599,0.023671029,-0.06093381,-0.00015271631
449,0.91617602,0.025503624,-0.057268616,-0.001985312
450,0.91817566,0.022449298,-0.054825157,-0.0056505036
451,0.92017569,0.023671029,-0.053603426,-0.0038179078
452,0.92217572,0.023060163,-0.051159963,-0.0068722339
453,0.92417576,0.021838432,-0.045662176,-0.0080939643
454,0.92617666,0.024892759,-0.044440448,-0.0099265603
455,0.92817669,0.023671029,-0.038942661,-0.0093156947
456,0.93017672,0.023671029,-0.034666602,-0.010537425
457,0.93217672,0.024281893,-0.034666602,-0.011759156
458,0.93417672,0.024281893,-0.031001411,-0.012980887
459,0.93617672,0.023060163,-0.027947085,-0.011148291
460,0.93817672,0.02611449,-0.025503624,-0.013591751
461,0.94017672,0.024892759,-0.025503624,-0.015424347
462,0.94217672,0.024281893,-0.025503624,-0.014202617
463,0.94417539,0.024892759,-0.027336219,-0.012370021
464,0.94617475,0.027947085,-0.026725354,-0.017256944
465,0.94817385,0.028557951,-0.028557951,-0.016035212
466,0.95017322,0.028557951,-0.030390546,-0.014202617
467,0.95217232,0.031001411,-0.035888333,-0.016035212
468,0.95417229,0.033444874,-0.041996986,-0.015424347
469,0.95617225,0.032223143,-0.046883907,-0.017867809
470,0.95817179,0.032834008,-0.053603426,-0.016646078
471,0.96017179,0.034055736,-0.062155537,-0.018478673
472,0.96217179,0.033444874,-0.065820731,-0.014813482
473,0.96417182,0.034666602,-0.073761977,-0.014202617
474,0.96617272,0.037110064,-0.082924955,-0.011759156
475,0.96817362,0.034666602,-0.087201014,-0.011759156
476,0.97017365,0.032834008,-0.098196588,-0.0080939643
477,0.97217368,0.034055736,-0.10735957,-0.0074830991
478,0.97417372,0.032834008,-0.11285736,-0.0062613687
479,0.97617372,0.031612277,-0.12018774,-0.0050396384
480,0.97817408,0.031001411,-0.12935072,-0.001985312
481,0.98017405,0.02977968,-0.13545936,-0.0025961774
482,0.98217402,0.029168816,-0.14401148,0.0010690142
483,0.98417398,0.029168816,-0.15439619,0.0010690142
484,0.98617308,0.027336219,-0.15561792,0.0047342055
485,0.98817218,0.02611449,-0.16355917,0.0059559359
486,0.99017128,0.024281893,-0.16783522,0.0090102628
487,0.99217041,0.023060163,-0.17516561,0.0071776668
488,0.99417045,0.023060163,-0.182496,0.0090102628
489,0.99617048,0.01817324,-0.18432859,0.012675454
490,1.0009092,0.019394971,-0.18616119,0.011453724
491,1.0029092,0.015118915,-0.18982637,0.013286319
492,1.0049092,0.012675454,-0.18921551,0.015118915
493,1.0069092,0.012675454,-0.1928807,0.015729779
494,1.0089098,0.010231993,-0.19471329,0.015729779
495,1.0109107,0.010231993,-0.19165897,0.015729779
496,1.0129116,0.0077885319,-0.19349156,0.016340645
497,1.0149124,0.0035124752,-0.1910481,0.013897184
498,1.0169124,0.0035124752,-0.18982637,0.01450805
499,1.0189124,0.00045814895,-0.18555032,0.012675454
500,1.0209129,-0.0013744468,-0.18371773,0.012064588
501,1.0229129,-0.0013744468,-0.18127427,0.012064588
502,1.0249129,-0.0038179078,-0.17577648,0.010231993
503,1.0269128,-0.0062613687,-0.17088956,0.011453724
504,1.0289119,-0.0062613687,-0.16783522,0.010842858
505,1.030911,-0.00870483,-0.16111571,0.0077885319
506,1.0329101,-0.00870483,-0.15561792,0.0096211275
507,1.0349092,-0.011148291,-0.15500705,0.0077885319
508,1.0369086,-0.0093156947,-0.15317446,0.0090102628
509,1.0389086,-0.0093156947,-0.15378532,0.0096211275
510,1.0409086,-0.0080939643,-0.15378532,0.0071776668
511,1.0429086,-0.0093156947,-0.15500705,0.0059559359
512,1.0449087,-0.0074830991,-0.15439619,0.0071776668
513,1.0469087,-0.0068722339,-0.15439619,0.0090102628
514,1.0489097,-0.0056505036,-0.16233744,0.0053450707
515,1.0509106,-0.0044287732,-0.16600263,0.0053450707
516,1.0529115,-0.0062613687,-0.16661349,0.0047342055
517,1.0549124,-0.0044287732,-0.17272215,0.0035124752
518,1.0569124,-0.0025961774,-0.18066339,0.0016798794
519,1.0589123,-0.0044287732,-0.18310685,0.0010690142
520,1.0609123,-0.0038179078,-0.1910481,-0.00076358154
521,1.0629123,-0.0032070426,-0.19532417,-0.0044287732
522,1.0649123,-0.0050396384,-0.19410244,-0.0025961774
523,1.0669122,-0.0062613687,-0.20082195,-0.0032070426
524,1.0689117,-0.0062613687,-0.20815234,-0.0080939643
525,1.0709108,-0.0062613687,-0.20998493,-0.00870483
526,1.0729109,-0.0093156947,-0.21242839,-0.012370021
527,1.0749109,-0.011759156,-0.21670444,-0.012370021
528,1.0769109,-0.0093156947,-0.21609358,-0.015424347
529,1.078911,-0.010537425,-0.21853705,-0.017256944
530,1.080911,-0.0099265603,-0.22036964,-0.017867809
531,1.082911,-0.0099265603,-0.22220223,-0.017867809
532,1.0849111,-0.00870483,-0.22159137,-0.016646078
533,1.0869111,-0.0074830991,-0.2228131,-0.021532999
534,1.0889121,-0.0062613687,-0.22464569,-0.021532999
535,1.0909129,-0.0050396384,-0.22586742,-0.022143865
536,1.0929138,-0.0062613687,-0.22342396,-0.021532999
537,1.0949147,-0.0038179078,-0.22525656,-0.02031127
538,1.0969152,-0.0013744468,-0.22342396,-0.022143865
539,1.0989152,-0.0025961774,-0.22586742,-0.020922136
540,1.1009152,-0.00076358154,-0.22342396,-0.020922136
541,1.1029152,-0.00015271631,-0.21914791,-0.021532999
542,1.1049151,-0.0013744468,-0.22403483,-0.019700404
543,1.1069151,0.0016798794,-0.22220223,-0.022754731
544,1.1089141,0.0010690142,-0.22036964,-0.019700404
545,1.1109132,0.0016798794,-0.2209805,-0.02031127
546,1.1129132,0.0016798794,-0.22220223,-0.019700404
547,1.1149132,0.00290161,-0.2228131,-0.020922136
548,1.1169131,0.0053450707,-0.21853705,-0.019089539
549,1.1189127,0.0053450707,-0.21914791,-0.015424347
550,1.1209127,0.0053450707,-0.21975878,-0.017256944
551,1.1229128,0.0053450707,-0.22036964,-0.016646078
552,1.1249128,0.0065668016,-0.21853705,-0.011148291
553,1.1269128,0.0053450707,-0.21365012,-0.0099265603
554,1.1289137,0.00290161,-0.20998493,-0.0093156947
555,1.1309142,0.00290161,-0.20937407,-0.0050396384
556,1.1329141,0.00290161,-0.20265454,-0.0025961774
557,1.1349141,0.0035124752,-0.19837849,-0.00076358154
558,1.1369141,0.0047342055,-0.19532417,0.0035124752
559,1.138914,0.0047342055,-0.19410244,0.00045814895
560,1.140914,0.0035124752,-0.19226983,0.00045814895
561,1.142914,0.0059559359,-0.19165897,0.00290161
562,1.1449139,0.0083993971,-0.18555032,0.0022907446
563,1.1469139,0.010842858,-0.18188512,0.0035124752
564,1.1489129,0.01450805,-0.18493946,0.0053450707
565,1.1509121,0.015729779,-0.18188512,0.0041233404
566,1.1529112,0.019394971,-0.18066339,0.0053450707
567,1.1549104,0.020616703,-0.18127427,0.0022907446
568,1.1569104,0.023671029,-0.1769982,0.0016798794
569,1.1589105,0.024281893,-0.17455475,0.0022907446
570,1.1609105,0.024892759,-0.17272215,0.0035124752
571,1.1629105,0.025503624,-0.16783522,0.00045814895
572,1.1649106,0.024281893,-0.16783522,0.0016798794
573,1.1669106,0.023060163,-0.16417004,0.0022907446
574,1.1689115,0.020616703,-0.15683965,0.0053450707
575,1.1709123,0.020616703,-0.15561792,0.0041233404
576,1.1729123,0.015729779,-0.15012014,0.0047342055
577,1.1749123,0.012675454,-0.14584407,0.0047342055
578,1.1769123,0.011453724,-0.14523321,0.0071776668
579,1.1789127,0.0077885319,-0.13729197,0.0083993971
580,1.1809127,0.0035124752,-0.13545936,0.0096211275
581,1.1829127,0.0022907446,-0.13362677,0.010231993
582,1.1849127,-0.001985312,-0.13179417,0.010231993
583,1.1869126,-0.0056505036,-0.12935072,0.013286319
584,1.1889117,-0.0080939643,-0.12690726,0.011453724
585,1.1909113,-0.010537425,-0.1244638,0.011453724
586,1.1929104,-0.014813482,-0.1226312,0.013286319
587,1.1949095,-0.013591751,-0.12507465,0.013286319
588,1.1969095,-0.016646078,-0.12568553,0.012064588
589,1.1989095,-0.020922136,-0.12507465,0.011453724
590,1.2009095,-0.02397646,-0.12629639,0.012064588
591,1.2029095,-0.024587326,-0.12812899,0.010231993
592,1.2049096,-0.027030786,-0.12935072,0.011453724
593,1.2069096,-0.027641652,-0.12996158,0.010842858
594,1.2089105,-0.031306844,-0.13240504,0.0083993971
595,1.2109114,-0.033750303,-0.1330159,0.0090102628
596,1.2129123,-0.036193766,-0.13362677,0.0090102628
597,1.2149131,-0.0355829,-0.13790283,0.0071776668
598,1.2169131,-0.03924809,-0.13790283,0.0090102628
599,1.218913,-0.039858956,-0.13790283,0.0071776668
600,1.220913,-0.039858956,-0.14095716,0.0077885319
601,1.222913,-0.040469822,-0.14095716,0.0090102628
602,1.2249129,-0.039858956,-0.13973543,0.0083993971
603,1.2269129,-0.042913284,-0.13790283,0.012064588
604,1.228912,-0.041691553,-0.13668109,0.015118915
605,1.2309112,-0.042913284,-0.1330159,0.01817324
606,1.2329104,-0.042302419,-0.12507465,0.022449298
607,1.2349095,-0.041691553,-0.12018774,0.025503624
608,1.2369087,-0.041080687,-0.11713341,0.031001411
609,1.2389095,-0.041691553,-0.10613783,0.032223143
610,1.2409096,-0.039858956,-0.096974857,0.036499199
611,1.2429096,-0.038637228,-0.088422745,0.038942661
612,1.2449096,-0.038637228,-0.076816306,0.040775254
613,1.2469096,-0.036193766,-0.067653328,0.046273042
614,1.2489105,-0.036193766,-0.06093381,0.04505131
615,1.2509114,-0.034972034,-0.047494773,0.045662176
616,1.2529123,-0.032528576,-0.034666602,0.048716504
617,1.2549131,-0.032528576,-0.031001411,0.049938235
618,1.2569122,-0.030695979,-0.020616703,0.049938235
619,1.2589122,-0.025809057,-0.010231993,0.050549097
620,1.2609122,-0.028252518,-0.0053450707,0.051159963
621,1.2629122,-0.024587326,0.0038179078,0.051159963
622,1.2649121,-0.022143865,0.015424347,0.051770829
623,1.2669121,-0.023365596,0.016035212,0.053603426
624,1.2689112,-0.02031127,0.025809057,0.05299256
625,1.2709112,-0.019700404,0.033139441,0.054825157
626,1.2729111,-0.016035212,0.038637228,0.053603426
627,1.2749111,-0.013591751,0.04352415,0.052381694
628,1.2769111,-0.011759156,0.049021937,0.05299256
629,1.2789111,-0.011148291,0.05513059,0.051770829
630,1.2809112,-0.0056505036,0.05879578,0.049938235
631,1.2829112,-0.0050396384,0.061850104,0.051159963
632,1.2849112,-0.00015271631,0.064293563,0.048105638
633,1.2869113,0.0016798794,0.066737026,0.045662176
634,1.2889122,0.0047342055,0.071623951,0.045662176
635,1.290913,0.0071776668,0.071623951,0.04138612
636,1.2929139,0.012064588,0.074067414,0.041996986
637,1.2949147,0.010842858,0.074067414,0.039553523
638,1.2969156,0.016951511,0.074067414,0.035888333
639,1.2989147,0.016951511,0.075289145,0.034666602
640,1.3009147,0.021227567,0.075289145,0.032834008
641,1.3029147,0.021227567,0.07040222,0.031001411
642,1.3049146,0.022449298,0.066737026,0.030390546
643,1.3069144,0.02611449,0.06307184,0.028557951
644,1.3089136,0.026725354,0.060017511,0.029168816
645,1.3109128,0.026725354,0.055741455,0.026725354
646,1.312912,0.027947085,0.055741455,0.024892759
647,1.314912,0.027336219,0.048411071,0.025503624
648,1.316913,0.02611449,0.041080687,0.024892759
649,1.318913,0.026725354,0.03924809,0.024281893
650,1.320913,0.026725354,0.029474247,0.024281893
651,1.3229131,0.025503624,0.02397646,0.021838432
652,1.3249131,0.024892759,0.018478673,0.023671029
653,1.3269131,0.02611449,0.012980887,0.021227567
654,1.3289136,0.024281893,0.0050396384,0.022449298
655,1.3309136,0.023671029,0.0013744468,0.023060163
656,1.3329136,0.023671029,-0.0041233404,0.020005837
657,1.3349136,0.024281893,-0.010231993,0.01817324
658,1.3369136,0.024281893,-0.013897184,0.017562376
659,1.3389136,0.024892759,-0.016340645,0.017562376
660,1.3409135,0.023671029,-0.020616703,0.015729779
661,1.3429135,0.023671029,-0.021227567,0.015729779
662,1.3449135,0.024892759,-0.022449298,0.013897184
663,1.3469134,0.027336219,-0.022449298,0.012064588
664,1.3489125,0.025503624,-0.023060163,0.011453724
665,1.3509116,0.02611449,-0.023671029,0.0071776668
666,1.3529107,0.02611449,-0.020005837,0.0065668016
667,1.3549099,0.024892759,-0.023671029,0.0047342055
668,1.3569099,0.024892759,-0.01817324,0.00045814895
669,1.3589099,0.021838432,-0.01817324,0.0022907446
670,1.36091,0.023060163,-0.015729779,-0.0013744468
671,1.36291,0.022449298,-0.016340645,-0.0038179078
672,1.36491,0.022449298,-0.011453724,-0.0068722339
673,1.3669103,0.021838432,-0.0083993971,-0.0093156947
674,1.3689112,0.021227567,-0.0090102628,-0.00870483
675,1.3709119,0.020616703,-0.0053450707,-0.011148291
676,1.3729128,0.020616703,-0.0053450707,-0.010537425
677,1.3749127,0.021227567,-0.0022907446,-0.014202617
678,1.3769127,0.020005837,-0.0010690142,-0.014813482
679,1.3789127,0.020005837,-0.0022907446,-0.014813482
680,1.3809126,0.020616703,0.00015271631,-0.017256944
681,1.3829126,0.021227567,0.0013744468,-0.017867809
682,1.3849126,0.019394971,0.001985312,-0.019089539
683,1.3869126,0.020616703,-0.00045814895,-0.019700404
684,1.388912,0.01817324,0.0044287732,-0.019089539
685,1.3909112,0.020005837,0.001985312,-0.020922136
686,1.3929103,0.018784106,-0.00045814895,-0.022143865
687,1.3949094,0.01817324,0.0013744468,-0.022754731
688,1.3969094,0.015118915,0.00076358154,-0.021532999
689,1.3989094,0.015729779,0.00015271631,-0.023365596
690,1.4009094,0.016951511,-0.0035124752,-0.022143865
691,1.4029095,0.016340645,-0.0035124752,-0.021532999
692,1.4049095,0.012064588,-0.0053450707,-0.021532999
693,1.4069095,0.012064588,-0.0083993971,-0.019700404
694,1.4089104,0.012064588,-0.0071776668,-0.019089539
695,1.4109113,0.010231993,-0.012064588,-0.017256944
696,1.4129122,0.0090102628,-0.011453724,-0.016646078
697,1.4149131,0.0077885319,-0.011453724,-0.016646078
698,1.4169131,0.0059559359,-0.012064588,-0.017256944
699,1.4189131,0.0047342055,-0.013897184,-0.014813482
700,1.4209131,0.0035124752,-0.015729779,-0.016035212
701,1.422913,-0.001985312,-0.012064588,-0.013591751
702,1.424913,-0.00076358154,-0.012675454,-0.014202617
703,1.426913,-0.0032070426,-0.015118915,-0.016646078
704,1.4289121,-0.0056505036,-0.012064588,-0.013591751
705,1.4309112,-0.0068722339,-0.012064588,-0.011759156
706,1.4329103,-0.0093156947,-0.010842858,-0.014813482
707,1.4349095,-0.0093156947,-0.011453724,-0.014202617
708,1.4369086,-0.012980887,-0.011453724,-0.017256944
709,1.4389078,-0.012370021,-0.0096211275,-0.014813482
710,1.4409078,-0.012980887,-0.012064588,-0.012980887
711,1.4429079,-0.016035212,-0.010231993,-0.012980887
712,1.4449079,-0.016646078,-0.012064588,-0.014202617
713,1.4469079,-0.019089539,-0.015729779,-0.014202617
714,1.4489088,-0.017867809,-0.015118915,-0.015424347
715,1.4509097,-0.020922136,-0.017562376,-0.014813482
716,1.4529106,-0.019089539,-0.020005837,-0.013591751
717,1.4549114,-0.021532999,-0.021838432,-0.012980887
718,1.456912,-0.022143865,-0.023671029,-0.012370021
719,1.458912,-0.023365596,-0.027336219,-0.012370021
720,1.460912,-0.022754731,-0.02977968,-0.011148291
721,1.4629119,-0.021532999,-0.035888333,-0.012980887
722,1.4649119,-0.028252518,-0.040164389,-0.012370021
723,1.4669119,-0.025198191,-0.04505131,-0.012370021
724,1.468911,-0.027030786,-0.048105638,-0.010537425
725,1.4709109,-0.028863383,-0.051770829,-0.0068722339
726,1.4729109,-0.027641652,-0.051770829,-0.0050396384
727,1.4749109,-0.027030786,-0.057268616,-0.0013744468
728,1.4769108,-0.027641652,-0.059101213,-0.00076358154
729,1.4789108,-0.025809057,-0.061544672,-0.001985312
730,1.4809109,-0.025198191,-0.065209866,0.0022907446
731,1.4829109,-0.02397646,-0.067653328,0.0010690142
732,1.4849109,-0.025809057,-0.068264194,0.0016798794
733,1.486911,-0.021532999,-0.070096783,0.0022907446
734,1.4889125,-0.023365596,-0.068264194,0.0041233404
735,1.4909134,-0.021532999,-0.071318515,0.0035124752
736,1.4929143,-0.02031127,-0.068875059,0.00045814895
737,1.4949151,-0.020922136,-0.067042463,0.0041233404
738,1.496916,-0.018478673,-0.068264194,0.0022907446
739,1.4989168,-0.018478673,-0.064599,0.0035124752
740,1.5009168,-0.014813482,-0.065820731,0.0022907446
741,1.5029167,-0.014813482,-0.063988134,0.0010690142
742,1.5049167,-0.013591751,-0.059101213,-0.001985312
743,1.5069167,-0.010537425,-0.054825157,-0.001985312
744,1.5089158,-0.013591751,-0.053603426,-0.0056505036
745,1.5109149,-0.011148291,-0.049938235,-0.0044287732
746,1.5129149,-0.0068722339,-0.047494773,-0.0056505036
747,1.5149149,-0.0080939643,-0.045662176,-0.0074830991
748,1.5169144,-0.0056505036,-0.041996986,-0.0062613687
749,1.5189145,-0.0056505036,-0.034666602,-0.0080939643
750,1.5209145,-0.0050396384,-0.030390546,-0.0068722339
751,1.5229145,-0.0025961774,-0.02977968,-0.010537425
752,1.5249146,-0.001985312,-0.021227567,-0.0093156947
753,1.5269146,-0.0025961774,-0.020005837,-0.010537425
754,1.5289159,-0.001985312,-0.01450805,-0.013591751
755,1.5309159,-0.00076358154,-0.012064588,-0.014813482
756,1.5329159,0.00045814895,-0.010231993,-0.013591751
757,1.5349159,-0.0013744468,-0.00290161,-0.016646078
758,1.5369159,0.0010690142,0.00015271631,-0.015424347
759,1.5389159,-0.00015271631,0.00076358154,-0.017256944
760,1.5409159,-0.00076358154,0.0038179078,-0.019700404
761,1.5429159,-0.00015271631,0.0056505036,-0.019089539
762,1.5449158,0.00045814895,0.0093156947,-0.017867809
763,1.5469158,-0.001985312,0.010537425,-0.020922136
764,1.5489143,-0.0032070426,0.0080939643,-0.017256944
765,1.5509134,-0.0050396384,0.012980887,-0.018478673
766,1.5529125,-0.0050396384,0.012980887,-0.018478673
767,1.5549116,-0.0050396384,0.014813482,-0.016646078
768,1.5569116,-0.0068722339,0.018478673,-0.016035212
769,1.5589116,-0.0099265603,0.022754731,-0.017867809
770,1.5609116,-0.0099265603,0.026419923,-0.017867809
771,1.5629117,-0.010537425,0.030695979,-0.013591751
772,1.5649117,-0.013591751,0.034361169,-0.014813482
773,1.5669117,-0.012370021,0.033139441,-0.015424347
774,1.5689126,-0.012980887,0.037415497,-0.012980887
775,1.5709136,-0.014813482,0.039858956,-0.011148291
776,1.5729136,-0.015424347,0.042913284,-0.011148291
777,1.5749135,-0.014813482,0.045356743,-0.011148291
778,1.5769135,-0.015424347,0.045967609,-0.0093156947
779,1.5789135,-0.015424347,0.04718934,-0.0080939643
780,1.5809134,-0.017256944,0.050243668,-0.0062613687
781,1.5829134,-0.017256944,0.045967609,-0.0038179078
782,1.5849133,-0.019089539,0.046578474,-0.0038179078
783,1.5869133,-0.017256944,0.044135015,-0.001985312
784,1.588912,-0.019089539,0.038026363,-0.00076358154
785,1.5909111,-0.019700404,0.038026363,0.00290161
786,1.5929103,-0.019700404,0.03191771,-0.00015271631
787,1.5949095,-0.019089539,0.024587326,0.0035124752
788,1.5969095,-0.020922136,0.022143865,0.0065668016
789,1.5989087,-0.020922136,0.016035212,0.0071776668
790,1.6009087,-0.02031127,0.0068722339,0.0090102628
791,1.6029087,-0.022143865,0.0038179078,0.0090102628
792,1.6049088,-0.022754731,-0.0041233404,0.011453724
793,1.6069088,-0.025198191,-0.010231993,0.012675454
794,1.6089097,-0.022143865,-0.012675454,0.010842858
795,1.6109105,-0.024587326,-0.023060163,0.012675454
796,1.6129114,-0.025198191,-0.029168816,0.015729779
797,1.6149123,-0.025809057,-0.030390546,0.015729779
798,1.616912,-0.025809057,-0.036499199,0.016340645
799,1.618912,-0.028252518,-0.040775254,0.015729779
800,1.6209119,-0.025809057,-0.043829583,0.015729779
801,1.6229119,-0.029474247,-0.045662176,0.015118915
802,1.6249119,-0.033139441,-0.046883907,0.016340645
803,1.6269118,-0.031306844,-0.04505131,0.013897184
804,1.6289109,-0.032528576,-0.045662176,0.01450805
805,1.63091,-0.033750303,-0.041996986,0.015118915
806,1.6329091,-0.034361169,-0.041996986,0.015118915
807,1.6349083,-0.036193766,-0.038942661,0.013897184
808,1.6369075,-0.0355829,-0.032834008,0.015118915
809,1.6389072,-0.036193766,-0.031612277,0.015729779
810,1.6409072,-0.036193766,-0.024281893,0.015118915
811,1.6429073,-0.0355829,-0.019394971,0.016340645
812,1.6449073,-0.038026363,-0.015729779,0.012675454
813,1.6469073,-0.0355829,-0.0096211275,0.015729779
814,1.6489081,-0.036193766,-0.0035124752,0.017562376
815,1.6509089,-0.034361169,-0.0016798794,0.015729779
816,1.6529098,-0.034972034,0.0050396384,0.015729779
817,1.6549106,-0.036193766,0.013591751,0.01450805
818,1.6569106,-0.034361169,0.016035212,0.01450805
819,1.6589114,-0.034972034,0.024587326,0.016951511
820,1.6609114,-0.036804631,0.029474247,0.015729779
821,1.6629113,-0.038026363,0.033139441,0.015118915
822,1.6649113,-0.036804631,0.037415497,0.016340645
823,1.6669113,-0.036804631,0.044745877,0.016340645
824,1.6689104,-0.039858956,0.044745877,0.016951511
825,1.6709106,-0.03924809,0.049021937,0.01450805
826,1.6729106,-0.03924809,0.046578474,0.015118915
827,1.6749106,-0.03924809,0.048411071,0.016340645
828,1.6769109,-0.038637228,0.045967609,0.018784106
829,1.678911,-0.040469822,0.04718934,0.015729779
830,1.680911,-0.04352415,0.04352415,0.01817324
831,1.682911,-0.042913284,0.044135015,0.017562376
832,1.684911,-0.04352415,0.04352415,0.020005837
833,1.686911,-0.045356743,0.039858956,0.01817324
834,1.6889119,-0.042913284,0.038637228,0.020005837
835,1.6909128,-0.045967609,0.0355829,0.020005837
836,1.6929136,-0.04352415,0.032528576,0.020005837
837,1.6949145,-0.044135015,0.028863383,0.022449298
838,1.6969152,-0.045967609,0.027030786,0.020616703
839,1.6989156,-0.046578474,0.025809057,0.021838432
840,1.7009155,-0.046578474,0.017867809,0.021838432
841,1.7029155,-0.044135015,0.014813482,0.021227567
842,1.7049155,-0.044745877,0.011759156,0.020005837
843,1.7069154,-0.045356743,0.0093156947,0.020616703
844,1.7089147,-0.044745877,0.00870483,0.019394971
845,1.7109138,-0.04718934,0.0050396384,0.020005837
846,1.7129138,-0.045356743,0.001985312,0.020005837
847,1.7149138,-0.047800206,0.00076358154,0.01817324
848,1.7169139,-0.049632803,-0.0022907446,0.017562376
849,1.7189139,-0.045967609,-0.0041233404,0.016951511
850,1.7209139,-0.047800206,-0.0053450707,0.013897184
851,1.722914,-0.049632803,-0.0077885319,0.015729779
852,1.724914,-0.05085453,-0.011453724,0.016340645
853,1.726914,-0.052076261,-0.012064588,0.01450805
854,1.7289149,-0.053297993,-0.013286319,0.012675454
855,1.7309148,-0.053297993,-0.012675454,0.015118915
856,1.7329148,-0.053908858,-0.016340645,0.012064588
857,1.7349147,-0.054519724,-0.022449298,0.012064588
858,1.7369147,-0.056963183,-0.022449298,0.0090102628
859,1.7389146,-0.056963183,-0.024281893,0.010231993
860,1.7409141,-0.058184914,-0.025503624,0.0077885319
861,1.7429141,-0.059406646,-0.034055736,0.0059559359
862,1.7449141,-0.060628377,-0.032223143,0.0071776668
863,1.7469139,-0.060017511,-0.035888333,0.0022907446
864,1.748913,-0.060628377,-0.040164389,0.0022907446
865,1.7509122,-0.058184914,-0.041996986,0.0022907446
866,1.7529114,-0.060017511,-0.04505131,0.0016798794
867,1.7549105,-0.05879578,-0.046883907,0.0022907446
868,1.7569106,-0.056352317,-0.047494773,0.0041233404
869,1.758911,-0.055741455,-0.051159963,0.00290161
870,1.760911,-0.058184914,-0.048716504,0.0016798794
871,1.762911,-0.05879578,-0.04932737,-0.00076358154
872,1.764911,-0.059406646,-0.048105638,-0.0038179078
873,1.766911,-0.05879578,-0.04505131,-0.0032070426
874,1.7689116,-0.05879578,-0.04505131,-0.0080939643
875,1.7709125,-0.056963183,-0.04505131,-0.0080939643
876,1.7729125,-0.058184914,-0.046273042,-0.0099265603
877,1.7749125,-0.05513059,-0.048105638,-0.0068722339
878,1.7769125,-0.053297993,-0.04932737,-0.0099265603
879,1.7789125,-0.052076261,-0.044440448,-0.0093156947
880,1.7809124,-0.049632803,-0.043829583,-0.011759156
881,1.7829124,-0.04718934,-0.04138612,-0.011759156
882,1.7849124,-0.045356743,-0.034055736,-0.012370021
883,1.7869123,-0.042913284,-0.031001411,-0.014202617
884,1.7889114,-0.03924809,-0.026725354,-0.013591751
885,1.7909106,-0.040469822,-0.022449298,-0.012370021
886,1.7929097,-0.038026363,-0.01817324,-0.013591751
887,1.7949089,-0.033139441,-0.013286319,-0.016035212
888,1.796908,-0.030085113,-0.010842858,-0.017256944
889,1.798908,-0.027641652,-0.0083993971,-0.02031127
890,1.8009085,-0.022754731,-0.0035124752,-0.02031127
891,1.8029086,-0.022143865,0.00076358154,-0.019089539
892,1.8049086,-0.018478673,0.00015271631,-0.02031127
893,1.8069089,-0.017867809,0.0056505036,-0.019700404
894,1.8089097,-0.014813482,0.0038179078,-0.019700404
895,1.8109105,-0.011148291,0.00870483,-0.022143865
896,1.8129114,-0.0068722339,0.011759156,-0.019089539
897,1.8149122,-0.0062613687,0.014202617,-0.017867809
898,1.8169122,-0.001985312,0.018478673,-0.016646078
899,1.8189117,-0.00076358154,0.022754731,-0.016646078
900,1.8209117,0.0010690142,0.026419923,-0.016035212
901,1.8229117,0.0022907446,0.029474247,-0.015424347
902,1.8249117,0.0053450707,0.030695979,-0.014813482
903,1.8269117,0.0071776668,0.030085113,-0.014202617
904,1.8289111,0.0077885319,0.033139441,-0.011759156
905,1.8309102,0.012064588,0.032528576,-0.012980887
906,1.8329093,0.012064588,0.033139441,-0.012980887
907,1.8349084,0.01450805,0.034972034,-0.0093156947
908,1.8369075,0.01817324,0.0355829,-0.0080939643
909,1.8389075,0.01817324,0.036804631,-0.0099265603
910,1.8409076,0.021838432,0.038026363,-0.0080939643
911,1.8429076,0.023060163,0.037415497,-0.0074830991
912,1.8449076,0.024892759,0.0355829,-0.0050396384
913,1.8469077,0.021838432,0.041080687,-0.0050396384
914,1.8489086,0.024281893,0.040469822,-0.0050396384
915,1.8509095,0.022449298,0.044745877,-0.00076358154
916,1.8529104,0.023060163,0.046578474,-0.00015271631
917,1.8549112,0.023060163,0.047800206,-0.0013744468
918,1.8569121,0.023060163,0.051465396,-0.001985312
919,1.8589121,0.021838432,0.05513059,0.00045814895
920,1.860912,0.020005837,0.06246097,0.0016798794
921,1.862912,0.020005837,0.061239243,0.0016798794
922,1.864912,0.017562376,0.07040222,-0.00015271631
923,1.8669119,0.020005837,0.078954332,0.0010690142
924,1.8689111,0.015729779,0.08200866,0.00045814895
925,1.8709111,0.01450805,0.08933904,0.0010690142
926,1.8729111,0.012675454,0.099723749,-0.00076358154
927,1.8749111,0.01450805,0.10583241,-0.00015271631
928,1.8769112,0.011453724,0.11133019,-0.001985312
929,1.8789109,0.01450805,0.11927144,-0.0013744468
930,1.8809109,0.011453724,0.12232576,0.0016798794
931,1.882911,0.010231993,0.12965615,0.0016798794
932,1.884911,0.013286319,0.13087788,-0.00076358154
933,1.886911,0.01450805,0.1339322,-0.00015271631
934,1.8889119,0.016340645,0.13637567,0.00045814895
935,1.8909127,0.01817324,0.13942999,-0.001985312
936,1.8929136,0.01817324,0.14065172,0.0010690142
937,1.8949145,0.018784106,0.14370605,-0.0013744468
938,1.8969154,0.021838432,0.14676037,-0.001985312
939,1.8989154,0.021227567,0.14737125,-0.0038179078
940,1.9009153,0.020616703,0.15225816,-0.0062613687
941,1.9029153,0.01817324,0.15836681,-0.0062613687
942,1.9049153,0.016951511,0.15897769,-0.0074830991
943,1.9069152,0.015729779,0.16081028,-0.0056505036
944,1.9089143,0.016951511,0.1601994,-0.0074830991
945,1.9109134,0.015118915,0.1601994,-0.0074830991
946,1.9129134,0.015729779,0.15653422,-0.011148291
947,1.9149133,0.015729779,0.15470162,-0.012370021
948,1.9169133,0.017562376,0.15225816,-0.017256944
949,1.9189134,0.017562376,0.14920384,-0.019089539
950,1.9209134,0.013897184,0.14737125,-0.020922136
951,1.9229134,0.016951511,0.14309518,-0.022143865
952,1.9249135,0.01817324,0.13454308,-0.02397646
953,1.9269135,0.021838432,0.12904528,-0.027030786
954,1.9289144,0.023060163,0.12660182,-0.027641652
955,1.9309144,0.026725354,0.12049317,-0.028863383
956,1.9329142,0.031612277,0.11560625,-0.030085113
957,1.9349142,0.034666602,0.11133019,-0.032528576
958,1.9369141,0.037110064,0.11255192,-0.034361169
959,1.9389144,0.040775254,0.10888673,-0.036193766
960,1.9409144,0.041996986,0.11071932,-0.038026363
961,1.9429143,0.04505131,0.10888673,-0.0355829
962,1.9449143,0.042607851,0.10949759,-0.034972034
963,1.9469143,0.043218717,0.11010846,-0.033139441
964,1.9489134,0.043218717,0.11255192,-0.030085113
965,1.9509126,0.042607851,0.11316279,-0.026419923
966,1.9529118,0.039553523,0.11255192,-0.026419923
967,1.9549109,0.04138612,0.10949759,-0.023365596
968,1.956911,0.038331795,0.10644327,-0.021532999
969,1.958911,0.036499199,0.11071932,-0.019089539
970,1.960911,0.034055736,0.10949759,-0.016035212
971,1.9629111,0.031612277,0.10827587,-0.013591751
972,1.9649111,0.025503624,0.11133019,-0.011148291
973,1.9669111,0.023671029,0.11071932,-0.0056505036
974,1.968912,0.020616703,0.10949759,-0.0044287732
975,1.9709128,0.016951511,0.10888673,-0.00015271631
976,1.9729128,0.010842858,0.10705414,0.0047342055
977,1.9749128,0.0071776668,0.11194105,0.0047342055
978,1.9769128,0.00290161,0.11255192,0.010231993
979,1.9789128,-0.00076358154,0.11010846,0.010231993
980,1.9809128,-0.0044287732,0.11133019,0.015118915
981,1.9829127,-0.0068722339,0.11255192,0.019394971
982,1.9849127,-0.011148291,0.11071932,0.018784106
983,1.9869127,-0.0099265603,0.10949759,0.020005837
984,1.9889118,-0.012370021,0.11071932,0.020005837
985,1.9909109,-0.014813482,0.11071932,0.023671029
986,1.9929102,-0.017256944,0.11499538,0.024281893
987,1.9949093,-0.018478673,0.11621711,0.023671029
988,1.9969094,-0.016646078,0.11743885,0.024281893
989,1.9989094,-0.018478673,0.11682798,0.023060163
990,2.0009094,-0.014202617,0.11682798,0.022449298
991,2.0029095,-0.012980887,0.12049317,0.023060163
992,2.0049095,-0.014202617,0.12049317,0.020616703
993,2.0069095,-0.011148291,0.12293663,0.021838432
994,2.0089104,-0.00870483,0.12232576,0.020616703
995,2.0109118,-0.00870483,0.12476923,0.018784106
996,2.0129126,-0.0056505036,0.1253801,0.018784106
997,2.0149134,-0.0056505036,0.12782355,0.020005837
998,2.0169134,-0.0032070426,0.12660182,0.016340645
999,2.0189133,0.00045814895,0.12232576,0.017562376
1000,2.0209132,0.0016798794,0.12110403,0.015729779
1001,2.0229132,0.0022907446,0.11499538,0.015118915
1002,2.0249132,0.0053450707,0.11194105,0.013286319
1003,2.0269132,0.0053450707,0.10705414,0.011453724
1004,2.0289123,0.0065668016,0.10277808,0.011453724
1005,2.0309115,0.0065668016,0.098502018,0.012064588
1006,2.0329107,0.0096211275,0.091171637,0.0065668016
1007,2.0349098,0.0096211275,0.086895578,0.0065668016
1008,2.036909,0.010842858,0.080176063,0.0035124752
1009,2.0389093,0.010842858,0.072845683,-0.0013744468
1010,2.0409094,0.011453724,0.074067414,-0.0032070426
1011,2.0429094,0.010231993,0.071623951,-0.0032070426
1012,2.0449094,0.010842858,0.071623951,-0.0038179078
1013,2.0469094,0.010231993,0.074067414,-0.0044287732
1014,2.0489103,0.010842858,0.073456548,-0.0044287732
1015,2.0509111,0.012675454,0.074678279,-0.0032070426
1016,2.052912,0.013286319,0.074678279,-0.0074830991
1017,2.0549129,0.012064588,0.075289145,-0.011148291
1018,2.0569128,0.015729779,0.077121735,-0.014813482
1019,2.0589124,0.016951511,0.080786929,-0.017256944
1020,2.0609124,0.018784106,0.081397794,-0.020922136
1021,2.0629124,0.021838432,0.08200866,-0.025198191
1022,2.0649123,0.022449298,0.086284719,-0.024587326
1023,2.0669123,0.023060163,0.08933904,-0.026419923
1024,2.0689114,0.027336219,0.08933904,-0.028863383
1025,2.0709109,0.027336219,0.091171637,-0.026419923
1026,2.0729109,0.025503624,0.095447697,-0.025809057
1027,2.0749109,0.02611449,0.096669428,-0.028863383
1028,2.0769109,0.027336219,0.099112883,-0.028863383
1029,2.0789111,0.02611449,0.10522154,-0.027641652
1030,2.0809111,0.024892759,0.10461067,-0.025198191
1031,2.0829114,0.026725354,0.10705414,-0.025198191
1032,2.0849115,0.023671029,0.10888673,-0.023365596
1033,2.0869115,0.023671029,0.11133019,-0.023365596
1034,2.0889124,0.024892759,0.11133019,-0.02031127
1035,2.0909132,0.021838432,0.10949759,-0.019089539
1036,2.092914,0.020616703,0.11010846,-0.017256944
1037,2.0949149,0.020005837,0.107665,-0.015424347
1038,2.0969157,0.01817324,0.107665,-0.012370021
1039,2.0989158,0.018784106,0.10399981,-0.012370021
1040,2.1009173,0.01450805,0.10155635,-0.013591751
1041,2.1029172,0.01450805,0.099112883,-0.0093156947
1042,2.1049172,0.012675454,0.097280294,-0.010537425
1043,2.1069179,0.0096211275,0.097891152,-0.0062613687
1044,2.108917,0.0077885319,0.094225965,-0.0038179078
1045,2.1109162,0.0065668016,0.0936151,-0.0013744468
1046,2.1129162,0.0041233404,0.089949906,-0.001985312
1047,2.1149163,0.0041233404,0.090560772,-0.00015271631
1048,2.1169163,0.0016798794,0.086284719,-0.00076358154
1049,2.1189168,-0.0013744468,0.083841257,-0.0038179078
1050,2.1209168,-0.0032070426,0.082619525,-0.0032070426
1051,2.1229168,-0.0050396384,0.080786929,-0.0044287732
1052,2.1249168,-0.0062613687,0.083230391,-0.0056505036
1053,2.1269168,-0.0062613687,0.082619525,-0.0080939643
1054,2.1289177,-0.00870483,0.08200866,-0.00870483
1055,2.1309177,-0.0093156947,0.083841257,-0.011148291
1056,2.1329177,-0.0074830991,0.088117309,-0.012370021
1057,2.1349177,-0.011759156,0.091782503,-0.014202617
1058,2.1369176,-0.011759156,0.095447697,-0.019089539
1059,2.1389176,-0.0093156947,0.10033461,-0.019700404
1060,2.1409176,-0.011759156,0.10216721,-0.02031127
1061,2.1429172,-0.011759156,0.11010846,-0.020922136
1062,2.1449172,-0.011148291,0.11316279,-0.02397646
1063,2.1469172,-0.0099265603,0.11316279,-0.023365596
1064,2.1489163,-0.010537425,0.11743885,-0.026419923
1065,2.1509154,-0.0093156947,0.12110403,-0.027641652
1066,2.1529146,-0.0074830991,0.11927144,-0.030085113
1067,2.1549137,-0.00870483,0.11621711,-0.028252518
1068,2.1569138,-0.0056505036,0.11743885,-0.028863383
1069,2.1589134,-0.0056505036,0.11499538,-0.030085113
1070,2.1609119,-0.0038179078,0.10888673,-0.033139441
1071,2.1629119,-0.0044287732,0.10277808,-0.030695979
1072,2.164912,-0.0038179078,0.097280294,-0.03191771
1073,2.1669114,-0.001985312,0.089949906,-0.031306844
1074,2.1689122,-0.0032070426,0.081397794,-0.033750303
1075,2.170913,-0.0025961774,0.0777326,-0.033750303
1076,2.172913,0.00045814895,0.06612616,-0.034361169
1077,2.174913,-0.0013744468,0.060628377,-0.030695979
1078,2.1769129,-0.001985312,0.055741455,-0.03191771
1079,2.1789137,-0.001985312,0.04718934,-0.028863383
1080,2.1809136,-0.001985312,0.041691553,-0.030085113
1081,2.1829136,0.0010690142,0.037415497,-0.031306844
1082,2.1849137,-0.0038179078,0.03191771,-0.029474247
1083,2.1869128,-0.00015271631,0.027641652,-0.031306844
1084,2.188912,-0.0025961774,0.023365596,-0.029474247
1085,2.1909111,-0.00015271631,0.017256944,-0.028863383
1086,2.1929103,-0.00015271631,0.016035212,-0.030085113
1087,2.1949094,-0.00076358154,0.014202617,-0.029474247
1088,2.1969095,0.0016798794,0.014813482,-0.027030786
1089,2.1989095,0.0016798794,0.0093156947,-0.029474247
1090,2.2009095,0.00045814895,0.012980887,-0.027030786
1091,2.2029092,0.0010690142,0.012980887,-0.025198191
1092,2.2049092,0.0035124752,0.010537425,-0.025198191
1093,2.2069092,0.0016798794,0.013591751,-0.02397646
1094,2.2089101,0.0010690142,0.012370021,-0.02397646
1095,2.210911,0.0047342055,0.014202617,-0.021532999
1096,2.2129118,0.00290161,0.014813482,-0.021532999
1097,2.2149126,0.0022907446,0.017867809,-0.016646078
1098,2.2169126,0.0022907446,0.02031127,-0.019089539
1099,2.2189126,0.0010690142,0.019700404,-0.014813482
1100,2.2209125,0.00045814895,0.025198191,-0.012980887
1101,2.2229125,0.00045814895,0.027030786,-0.0080939643
1102,2.2249125,-0.00015271631,0.027030786,-0.0074830991
1103,2.2269124,-0.0013744468,0.030695979,-0.0044287732
1104,2.2289116,-0.0025961774,0.033750303,-0.0068722339
1105,2.2309107,-0.001985312,0.039858956,-0.0025961774
1106,2.2329099,-0.0038179078,0.04352415,-0.0038179078
1107,2.234909,-0.0080939643,0.044745877,-0.001985312
1108,2.2369085,-0.0080939643,0.049632803,0.0010690142
1109,2.2389078,-0.011759156,0.055741455,0.0016798794
1110,2.2409079,-0.012980887,0.058184914,-0.0013744468
1111,2.2429079,-0.013591751,0.061239243,-0.00015271631
1112,2.2449079,-0.014813482,0.064293563,-0.00015271631
1113,2.2469088,-0.014813482,0.06612616,-0.00076358154
1114,2.2489096,-0.016035212,0.069180489,0.0047342055
1115,2.2509104,-0.016035212,0.072845683,0.0035124752
1116,2.2529124,-0.016646078,0.075289145,0.0022907446
1117,2.2549133,-0.016646078,0.074678279,0.0041233404
1118,2.2569133,-0.017256944,0.075900003,0.0035124752
1119,2.2589132,-0.017256944,0.075289145,0.0047342055
1120,2.2609132,-0.015424347,0.076510869,0.0047342055
1121,2.2629135,-0.012980887,0.074678279,0.00290161
1122,2.2649136,-0.011759156,0.072234817,0.0035124752
1123,2.2669136,-0.012980887,0.078343466,0.0041233404
1124,2.2689128,-0.0093156947,0.074678279,0.00045814895
1125,2.2709119,-0.00870483,0.075900003,0.00045814895
1126,2.272912,-0.0062613687,0.078954332,-0.0032070426
1127,2.2749117,-0.0050396384,0.080786929,-0.001985312
1128,2.2769118,-0.0050396384,0.081397794,-0.001985312
1129,2.2789122,-0.00076358154,0.083230391,-0.0032070426
1130,2.2809122,-0.00015271631,0.083230391,-0.0032070426
1131,2.2829122,0.0010690142,0.085062988,-0.0062613687
1132,2.2849122,0.0010690142,0.088117309,-0.0068722339
1133,2.2869122,0.0010690142,0.083841257,-0.0080939643
1134,2.2889131,0.0010690142,0.08933904,-0.0068722339
1135,2.2909139,0.0010690142,0.08933904,-0.011759156
1136,2.2929148,-0.00015271631,0.091782503,-0.011148291
1137,2.2949156,-0.00015271631,0.094225965,-0.0099265603
1138,2.2969161,-0.00076358154,0.094836831,-0.012980887
1139,2.2989159,-0.001985312,0.095447697,-0.013591751
1140,2.3009159,-0.0050396384,0.094836831,-0.011759156
1141,2.3029159,-0.0056505036,0.095447697,-0.015424347
1142,2.3049158,-0.0093156947,0.091782503,-0.014813482
1143,2.3069158,-0.0099265603,0.094836831,-0.016035212
1144,2.308915,-0.0099265603,0.08933904,-0.017867809
1145,2.3109142,-0.014813482,0.089949906,-0.017256944
1146,2.3129131,-0.013591751,0.087506443,-0.018478673
1147,2.3149131,-0.016035212,0.081397794,-0.022143865
1148,2.3169131,-0.016035212,0.080176063,-0.022143865
1149,2.3189132,-0.018478673,0.074678279,-0.023365596
1150,2.3209132,-0.017867809,0.074067414,-0.025809057
1151,2.3229132,-0.019700404,0.067958757,-0.028863383
1152,2.3249132,-0.019700404,0.064904429,-0.028252518
1153,2.3269131,-0.02031127,0.061239243,-0.027030786
1154,2.328914,-0.018478673,0.055741455,-0.030695979
1155,2.3309148,-0.019700404,0.054519724,-0.030695979
1156,2.3329148,-0.02031127,0.049632803,-0.032528576
1157,2.334915,-0.017256944,0.046578474,-0.034361169
1158,2.336915,-0.016646078,0.04352415,-0.034361169
1159,2.3389141,-0.016646078,0.038026363,-0.0355829
1160,2.3409141,-0.017256944,0.037415497,-0.03191771
1161,2.3429142,-0.016035212,0.034972034,-0.036193766
1162,2.3449142,-0.016035212,0.030695979,-0.034361169
1163,2.3469142,-0.018478673,0.028863383,-0.03191771
1164,2.3489134,-0.016035212,0.028863383,-0.031306844
1165,2.3509126,-0.015424347,0.025198191,-0.028863383
1166,2.3529117,-0.017256944,0.025198191,-0.028863383
1167,2.3549109,-0.016035212,0.024587326,-0.028863383
1168,2.3569109,-0.017256944,0.024587326,-0.029474247
1169,2.3589109,-0.017867809,0.025198191,-0.028863383
1170,2.3609109,-0.019089539,0.029474247,-0.027030786
1171,2.3629109,-0.02031127,0.033139441,-0.025198191
1172,2.3649109,-0.021532999,0.031306844,-0.024587326
1173,2.3669109,-0.020922136,0.034972034,-0.022754731
1174,2.3689115,-0.020922136,0.042302419,-0.023365596
1175,2.3709123,-0.021532999,0.042302419,-0.021532999
1176,2.3729123,-0.024587326,0.053297993,-0.019700404
1177,2.3749123,-0.026419923,0.057574049,-0.017867809
1178,2.3769122,-0.027641652,0.056963183,-0.016646078
1179,2.3789122,-0.028252518,0.067347892,-0.013591751
1180,2.3809122,-0.027641652,0.072234817,-0.011759156
1181,2.3829121,-0.029474247,0.075900003,-0.011759156
1182,2.3849121,-0.030085113,0.081397794,-0.0074830991
1183,2.3869122,-0.032528576,0.086895578,-0.0093156947
1184,2.3889113,-0.029474247,0.088117309,-0.0074830991
1185,2.3909105,-0.033750303,0.092393368,-0.0044287732
1186,2.3929096,-0.033750303,0.092393368,-0.00076358154
1187,2.3949088,-0.0355829,0.091171637,-0.00015271631
1188,2.3969088,-0.038026363,0.091171637,0.0035124752
1189,2.3989093,-0.039858956,0.088117309,0.0053450707
1190,2.4009093,-0.040469822,0.084452122,0.0059559359
1191,2.4029092,-0.040469822,0.078954332,0.0090102628
1192,2.4049092,-0.042913284,0.072234817,0.010842858
1193,2.4069092,-0.045356743,0.067958757,0.010231993
1194,2.40891,-0.045356743,0.061239243,0.01450805
1195,2.4109108,-0.047800206,0.058184914,0.015118915
1196,2.4129116,-0.04718934,0.051465396,0.016340645
1197,2.4149125,-0.046578474,0.044135015,0.016340645
1198,2.4169125,-0.049021937,0.037415497,0.013897184
1199,2.4189125,-0.047800206,0.033750303,0.016340645
1200,2.4209125,-0.048411071,0.027030786,0.015729779
1201,2.4229133,-0.048411071,0.020922136,0.016340645
1202,2.4249133,-0.046578474,0.016035212,0.013286319
1203,2.4269133,-0.046578474,0.011148291,0.013897184
1204,2.4289128,-0.044135015,0.00076358154,0.010842858
1205,2.430912,-0.045967609,0.0013744468,0.0083993971
1206,2.4329112,-0.041691553,-0.0077885319,0.0083993971
1207,2.4349103,-0.04352415,-0.0083993971,0.0059559359
1208,2.4369098,-0.038026363,-0.015118915,0.0010690142
1209,2.4389098,-0.037415497,-0.023060163,-0.00015271631
1210,2.4409098,-0.030085113,-0.02611449,-0.0050396384
1211,2.4429098,-0.025809057,-0.028557951,-0.0062613687
1212,2.4449098,-0.021532999,-0.032223143,-0.010537425
1213,2.4469097,-0.017256944,-0.037110064,-0.016035212
1214,2.4489104,-0.014202617,-0.040164389,-0.018478673
1215,2.4509113,-0.0056505036,-0.040164389,-0.022754731
1216,2.4529121,-0.00076358154,-0.038331795,-0.025198191
1217,2.4549129,0.0022907446,-0.040775254,-0.027030786
1218,2.4569129,0.0059559359,-0.038942661,-0.030695979
1219,2.4589127,0.013286319,-0.032834008,-0.037415497
1220,2.4609127,0.013897184,-0.031612277,-0.036193766
1221,2.4629127,0.015729779,-0.028557951,-0.044745877
1222,2.4649127,0.022449298,-0.024281893,-0.045967609
1223,2.4669127,0.023060163,-0.024281893,-0.047800206
1224,2.4689119,0.024281893,-0.017562376,-0.051465396
1225,2.4709131,0.025503624,-0.016340645,-0.054519724
1226,2.4729131,0.023671029,-0.011453724,-0.056963183
1227,2.4749131,0.023060163,-0.0090102628,-0.057574049
1228,2.4769132,0.023060163,-0.0071776668,-0.058184914
1229,2.4789132,0.021838432,-0.0035124752,-0.060017511
1230,2.4809131,0.021227567,-0.0010690142,-0.061239243
1231,2.4829124,0.019394971,-0.0022907446,-0.06246097
1232,2.4849124,0.016340645,-0.0035124752,-0.063682705
1233,2.4869123,0.016340645,-0.0053450707,-0.066737026
1234,2.4889129,0.01450805,-0.0071776668,-0.067958757
1235,2.4909137,0.013897184,-0.010842858,-0.069791354
1236,2.4929146,0.012675454,-0.01450805,-0.072234817
1237,2.4949154,0.012675454,-0.016951511,-0.071013086
1238,2.496916,0.0090102628,-0.023671029,-0.074067414
1239,2.498916,0.0065668016,-0.027336219,-0.074067414
1240,2.5009161,0.0053450707,-0.02977968,-0.076510869
1241,2.5029161,0.00045814895,-0.035277467,-0.0777326
1242,2.5049161,0.0016798794,-0.042607851,-0.078343466
1243,2.5069162,-0.0013744468,-0.047494773,-0.0777326
1244,2.5089155,-0.001985312,-0.051159963,-0.079565197
1245,2.5109147,-0.0044287732,-0.062766403,-0.079565197
1246,2.5129139,-0.0056505036,-0.063988134,-0.080786929
1247,2.5149139,-0.0074830991,-0.072540246,-0.08200866
1248,2.5169139,-0.011148291,-0.082314089,-0.084452122
1249,2.5189136,-0.012980887,-0.086590149,-0.083230391
1250,2.5209136,-0.014202617,-0.094531395,-0.085062988
1251,2.5229136,-0.016035212,-0.10369437,-0.087506443
1252,2.5249136,-0.017256944,-0.1085813,-0.08933904
1253,2.5269135,-0.019700404,-0.11957687,-0.091782503
1254,2.5289144,-0.021532999,-0.12996158,-0.089949906
1255,2.5309132,-0.023365596,-0.13668109,-0.091171637
1256,2.5329132,-0.025198191,-0.14767668,-0.091171637
1257,2.5349131,-0.026419923,-0.15745051,-0.091171637
1258,2.5369131,-0.030695979,-0.16294831,-0.093004234
1259,2.5389131,-0.033139441,-0.17516561,-0.094225965
1260,2.5409131,-0.033750303,-0.18432859,-0.096058562
1261,2.5429131,-0.0355829,-0.1910481,-0.094836831
1262,2.5449131,-0.038026363,-0.20082195,-0.094836831
1263,2.5469132,-0.038026363,-0.21120666,-0.099112883
1264,2.5489124,-0.038637228,-0.21670444,-0.10033461
1265,2.5509116,-0.040469822,-0.22586742,-0.099723749
1266,2.5529108,-0.039858956,-0.23258694,-0.097891152
1267,2.5549099,-0.040469822,-0.23258694,-0.096669428
1268,2.5569099,-0.039858956,-0.236863,-0.094836831
1269,2.5589099,-0.041080687,-0.23930646,-0.096058562
1270,2.5609099,-0.041080687,-0.24113905,-0.093004234
1271,2.5629098,-0.041080687,-0.24174993,-0.092393368
1272,2.5649098,-0.041080687,-0.24236079,-0.094836831
1273,2.5669098,-0.042302419,-0.24297164,-0.092393368
1274,2.5689104,-0.04352415,-0.24236079,-0.092393368
1275,2.5709112,-0.04352415,-0.24480425,-0.093004234
1276,2.572912,-0.044745877,-0.24358252,-0.092393368
1277,2.574912,-0.044135015,-0.24236079,-0.08933904
1278,2.576912,-0.045356743,-0.236863,-0.086895578
1279,2.5789126,-0.044745877,-0.23380867,-0.087506443
1280,2.5809126,-0.044135015,-0.23197608,-0.084452122
1281,2.5829126,-0.045356743,-0.22403483,-0.084452122
1282,2.5849126,-0.045967609,-0.22342396,-0.083230391
1283,2.5869126,-0.042913284,-0.21548271,-0.080176063
1284,2.5889118,-0.042302419,-0.21120666,-0.078954332
1285,2.5909109,-0.04352415,-0.20998493,-0.077121735
1286,2.5929101,-0.04352415,-0.19898935,-0.075289145
1287,2.5949093,-0.042302419,-0.19715676,-0.073456548
1288,2.5969093,-0.045356743,-0.19226983,-0.071013086
1289,2.5989093,-0.045356743,-0.18493946,-0.066737026
1290,2.6009094,-0.046578474,-0.18310685,-0.065515295
1291,2.6029094,-0.04718934,-0.17638734,-0.063682705
1292,2.6049094,-0.049632803,-0.17577648,-0.061239243
1293,2.6069093,-0.050243668,-0.17394388,-0.060017511
1294,2.6089106,-0.052687127,-0.17272215,-0.054519724
1295,2.6109114,-0.054519724,-0.17027868,-0.05085453
1296,2.6129123,-0.056963183,-0.16966783,-0.049021937
1297,2.6149131,-0.060017511,-0.17150041,-0.046578474
1298,2.6169131,-0.06246097,-0.17027868,-0.041080687
1299,2.6189131,-0.063682705,-0.17088956,-0.03924809
1300,2.6209131,-0.067958757,-0.17577648,-0.038026363
1301,2.6229131,-0.07040222,-0.17638734,-0.033139441
1302,2.6249131,-0.073456548,-0.18005253,-0.025809057
1303,2.6269132,-0.074067414,-0.18432859,-0.026419923
1304,2.6289125,-0.077121735,-0.18982637,-0.024587326
1305,2.6309117,-0.077121735,-0.19226983,-0.02397646
1306,2.6329108,-0.074067414,-0.19715676,-0.019089539
1307,2.63491,-0.076510869,-0.20326541,-0.017256944
1308,2.6369096,-0.074678279,-0.20570888,-0.015424347
1309,2.6389092,-0.072845683,-0.21365012,-0.016035212
1310,2.6409092,-0.072845683,-0.21426098,-0.014202617
1311,2.6429092,-0.069791354,-0.22036964,-0.010537425
1312,2.6449092,-0.065515295,-0.22892176,-0.011759156
1313,2.6469092,-0.064904429,-0.23014349,-0.0099265603
1314,2.64891,-0.061239243,-0.23258694,-0.010537425
1315,2.6509109,-0.057574049,-0.2350304,-0.010537425
1316,2.6529117,-0.05513059,-0.23869559,-0.0099265603
1317,2.6549125,-0.053297993,-0.23869559,-0.0093156947
1318,2.6569125,-0.05085453,-0.24113905,-0.0080939643
1319,2.6589125,-0.046578474,-0.24236079,-0.00870483
1320,2.6609124,-0.044135015,-0.24174993,-0.0080939643
1321,2.6629124,-0.042913284,-0.23869559,-0.0074830991
1322,2.6649124,-0.042302419,-0.23319781,-0.00870483
1323,2.6669124,-0.041691553,-0.23075435,-0.0074830991
1324,2.6689112,-0.041691553,-0.22403483,-0.0074830991
1325,2.6709112,-0.040469822,-0.21487185,-0.0068722339
1326,2.6729112,-0.041080687,-0.21059579,-0.0050396384
1327,2.6749109,-0.041080687,-0.20570888,-0.0080939643
1328,2.6769109,-0.039858956,-0.19471329,-0.0044287732
1329,2.6789109,-0.039858956,-0.19226983,-0.0056505036
1330,2.680911,-0.041691553,-0.18371773,-0.0044287732
1331,2.682911,-0.042302419,-0.17516561,-0.001985312
1332,2.6849109,-0.042302419,-0.17333302,-0.0032070426
1333,2.6869109,-0.045967609,-0.16722436,-0.0013744468
1334,2.6889118,-0.048411071,-0.16172658,-0.0013744468
1335,2.6909126,-0.05085453,-0.15867224,-0.001985312
1336,2.6929134,-0.053297993,-0.15622878,0.0010690142
1337,2.6949143,-0.057574049,-0.15439619,0.00290161
1338,2.6969147,-0.058184914,-0.15683965,0.0035124752
1339,2.6989162,-0.061850104,-0.15867224,0.0053450707
1340,2.7009162,-0.06612616,-0.15867224,0.0059559359
1341,2.7029163,-0.068569623,-0.16050485,0.0077885319
1342,2.7049163,-0.072845683,-0.16172658,0.010231993
1343,2.7069163,-0.073456548,-0.1647809,0.012675454
1344,2.7089155,-0.0777326,-0.16722436,0.012064588
1345,2.7109148,-0.080176063,-0.17272215,0.012675454
1346,2.7129148,-0.084452122,-0.17211129,0.015729779
1347,2.7149148,-0.085062988,-0.17638734,0.015729779
1348,2.7169148,-0.087506443,-0.18127427,0.015729779
1349,2.7189148,-0.089949906,-0.18677205,0.018784106
1350,2.7209148,-0.092393368,-0.18860464,0.019394971
1351,2.7229148,-0.092393368,-0.1928807,0.023060163
1352,2.7249148,-0.092393368,-0.20204368,0.022449298
1353,2.7269148,-0.094225965,-0.20631973,0.024281893
1354,2.7289152,-0.094225965,-0.21365012,0.023060163
1355,2.730915,-0.093004234,-0.23014349,0.021838432
1356,2.7329149,-0.089949906,-0.23625213,0.021227567
1357,2.7349153,-0.088728175,-0.25152376,0.019394971
1358,2.7369155,-0.087506443,-0.25885415,0.020616703
1359,2.7389155,-0.086284719,-0.27595839,0.020005837
1360,2.7409154,-0.084452122,-0.29000828,0.020616703
1361,2.7429154,-0.08200866,-0.30100384,0.021227567
1362,2.7449154,-0.078954332,-0.31749722,0.021838432
1363,2.7469154,-0.074067414,-0.33399057,0.020005837
1364,2.7489146,-0.074067414,-0.3407101,0.019394971
1365,2.7509137,-0.068569623,-0.35170567,0.018784106
1366,2.7529129,-0.063682705,-0.36086863,0.017562376
1367,2.7549121,-0.060017511,-0.36636642,0.013897184
1368,2.7569121,-0.058184914,-0.36758816,0.011453724
1369,2.7589109,-0.052687127,-0.36880988,0.0090102628
1370,2.7609109,-0.049632803,-0.36758816,0.0071776668
1371,2.7629108,-0.045967609,-0.36575556,0.0041233404
1372,2.7649108,-0.04352415,-0.36636642,-0.001985312
1373,2.7669108,-0.044135015,-0.36147952,-0.0032070426
1374,2.7689116,-0.041080687,-0.34987307,-0.00870483
1375,2.7709123,-0.038026363,-0.34132096,-0.010537425
1376,2.7729123,-0.038026363,-0.33948836,-0.011759156
1377,2.7749123,-0.036804631,-0.32788193,-0.014202617
1378,2.7769123,-0.036193766,-0.31444287,-0.018478673
1379,2.7789123,-0.036193766,-0.31077769,-0.017867809
1380,2.7809123,-0.039858956,-0.29550606,-0.019089539
1381,2.7829124,-0.03924809,-0.28389964,-0.021532999
1382,2.7849124,-0.040469822,-0.27779096,-0.022143865
1383,2.7869124,-0.04352415,-0.26618454,-0.025809057
1384,2.7889119,-0.045356743,-0.25885415,-0.027641652
1385,2.7909113,-0.047800206,-0.25396723,-0.029474247
1386,2.7929105,-0.048411071,-0.2490803,-0.033750303
1387,2.7949096,-0.05085453,-0.24297164,-0.033750303
1388,2.7969094,-0.05085453,-0.24297164,-0.036804631
1389,2.7989094,-0.049632803,-0.23625213,-0.037415497
1390,2.8009094,-0.049021937,-0.23564127,-0.039858956
1391,2.8029094,-0.049021937,-0.236863,-0.041080687
1392,2.8049094,-0.048411071,-0.2350304,-0.041080687
1393,2.8069094,-0.04352415,-0.23869559,-0.048411071
1394,2.8089108,-0.039858956,-0.23930646,-0.047800206
1395,2.8109116,-0.037415497,-0.2405282,-0.05085453
1396,2.8129124,-0.033139441,-0.23930646,-0.052687127
1397,2.8149133,-0.03191771,-0.23808473,-0.052076261
1398,2.8169132,-0.031306844,-0.23441954,-0.058184914
1399,2.8189132,-0.025198191,-0.22831088,-0.05879578
1400,2.8209132,-0.02397646,-0.22770002,-0.059406646
1401,2.8229132,-0.022754731,-0.22342396,-0.060017511
1402,2.8249132,-0.02031127,-0.21670444,-0.06246097
1403,2.8269132,-0.017867809,-0.21426098,-0.06307184
1404,2.8289124,-0.018478673,-0.21059579,-0.061850104
1405,2.8309116,-0.017256944,-0.20570888,-0.065515295
1406,2.8329107,-0.014202617,-0.20021108,-0.06612616
1407,2.8349099,-0.012980887,-0.19165897,-0.063682705
1408,2.836909,-0.012980887,-0.18616119,-0.061850104
1409,2.838909,-0.011148291,-0.1769982,-0.060628377
1410,2.840909,-0.0080939643,-0.16172658,-0.056963183
1411,2.842909,-0.00870483,-0.15195273,-0.056963183
1412,2.8449089,-0.010537425,-0.14401148,-0.054519724
1413,2.8469089,-0.00870483,-0.13607024,-0.045967609
1414,2.8489097,-0.0099265603,-0.12690726,-0.038637228
1415,2.8509106,-0.0080939643,-0.1244638,-0.033139441
1416,2.8529114,-0.0093156947,-0.11774427,-0.027030786
1417,2.8549123,-0.0068722339,-0.11713341,-0.02031127
1418,2.8569123,-0.00870483,-0.11468995,-0.015424347
1419,2.8589123,-0.0080939643,-0.1207986,-0.00870483
1420,2.8609123,-0.0062613687,-0.13118331,-0.0013744468
1421,2.8629124,-0.0038179078,-0.13545936,0.0016798794
1422,2.8649124,-0.0025961774,-0.14950927,0.0071776668
1423,2.8669124,0.0016798794,-0.16050485,0.010231993
1424,2.8689111,0.0035124752,-0.17821993,0.013897184
1425,2.8709103,0.0090102628,-0.20143281,0.017562376
1426,2.8729103,0.010842858,-0.21303925,0.021227567
1427,2.8749103,0.013897184,-0.23808473,0.02611449
1428,2.8769103,0.013897184,-0.26068676,0.02977968
1429,2.8789094,0.013897184,-0.26923886,0.031612277
1430,2.8809094,0.01450805,-0.29122999,0.037110064
1431,2.8829094,0.013286319,-0.30955598,0.038942661
1432,2.8849094,0.013897184,-0.31994069,0.038942661
1433,2.8869094,0.010842858,-0.33093625,0.043829583
1434,2.8889102,0.010842858,-0.33826664,0.045662176
1435,2.890911,0.0059559359,-0.34009922,0.047494773
1436,2.8929119,0.00290161,-0.34315357,0.048716504
1437,2.8949127,-0.0038179078,-0.34254268,0.050549097
1438,2.8969136,-0.0025961774,-0.34009922,0.051159963
1439,2.8989135,-0.0074830991,-0.33399057,0.050549097
1440,2.9009135,-0.013591751,-0.32177326,0.054214291
1441,2.9029136,-0.015424347,-0.31627548,0.053603426
1442,2.9049136,-0.020922136,-0.29978213,0.05665775
1443,2.9069136,-0.028252518,-0.29122999,0.054214291
1444,2.9089128,-0.028863383,-0.28451049,0.053603426
1445,2.910912,-0.0355829,-0.26923886,0.054214291
1446,2.912912,-0.042913284,-0.25213462,0.056046885
1447,2.914912,-0.045967609,-0.2405282,0.057879481
1448,2.916912,-0.049021937,-0.22159137,0.062766403
1449,2.918912,-0.054519724,-0.20265454,0.065209866
1450,2.920912,-0.057574049,-0.1928807,0.065209866
1451,2.9229119,-0.061239243,-0.17516561,0.068875059
1452,2.9249119,-0.06246097,-0.15989397,0.070096783
1453,2.9269119,-0.064904429,-0.1525636,0.069485925
1454,2.9289126,-0.065515295,-0.13912456,0.072540246
1455,2.9309135,-0.064904429,-0.12690726,0.070707649
1456,2.9329134,-0.066737026,-0.1226312,0.066431597
1457,2.9349135,-0.065515295,-0.11468995,0.068264194
1458,2.9369135,-0.061239243,-0.1067487,0.063377269
1459,2.9389147,-0.061239243,-0.10797043,0.061544672
1460,2.9409147,-0.05879578,-0.10064005,0.057268616
1461,2.9429148,-0.052076261,-0.097585723,0.056046885
1462,2.9449148,-0.048411071,-0.094531395,0.052381694
1463,2.9469148,-0.044135015,-0.08781188,0.054214291
1464,2.948914,-0.040469822,-0.084146686,0.05299256
1465,2.9509131,-0.034972034,-0.084146686,0.049938235
1466,2.9529122,-0.029474247,-0.081703223,0.048105638
1467,2.9549114,-0.020922136,-0.079870634,0.048105638
1468,2.9569114,-0.02031127,-0.078648902,0.048716504
1469,2.9589114,-0.0099265603,-0.077427171,0.048105638
1470,2.9609114,-0.0062613687,-0.073151112,0.048716504
1471,2.9629118,-0.0032070426,-0.071318515,0.047494773
1472,2.9649113,0.00045814895,-0.057879481,0.050549097
1473,2.9669113,0.0077885319,-0.048716504,0.048105638
1474,2.9689121,0.0071776668,-0.044440448,0.050549097
1475,2.9709129,0.0090102628,-0.030390546,0.048716504
1476,2.9729129,0.011453724,-0.016340645,0.047494773
1477,2.9749129,0.01450805,-0.0083993971,0.045662176
1478,2.9769128,0.013897184,0.00870483,0.043829583
1479,2.9789128,0.017562376,0.019700404,0.04138612
1480,2.9809129,0.01450805,0.026419923,0.039553523
1481,2.9829129,0.016951511,0.042913284,0.040164389
1482,2.9849129,0.010231993,0.060017511,0.040775254
1483,2.986913,0.0096211275,0.066737026,0.040775254
1484,2.9889122,0.0022907446,0.072234817,0.040164389
1485,2.9909114,-0.00015271631,0.072845683,0.040164389
1486,2.9929105,-0.0044287732,0.064904429,0.03772093
1487,2.9949097,-0.0099265603,0.058184914,0.035888333
1488,2.9969096,-0.015424347,0.059406646,0.038331795
1489,2.9989089,-0.017256944,0.060017511,0.036499199
1490,3.0009089,-0.02397646,0.060017511,0.040164389
1491,3.0029089,-0.027030786,0.058184914,0.040164389
1492,3.0049088,-0.032528576,0.049021937,0.039553523
1493,3.0069088,-0.03924809,0.038637228,0.038942661
1494,3.0089096,-0.040469822,0.029474247,0.039553523
1495,3.0109105,-0.044745877,0.012980887,0.042607851
1496,3.0129114,-0.04352415,0.00015271631,0.045662176
1497,3.0149122,-0.044135015,-0.0047342055,0.045662176
1498,3.0169122,-0.045356743,-0.0090102628,0.044440448
1499,3.0189122,-0.04718934,-0.012064588,0.046883907
1500,3.0209122,-0.04718934,-0.0096211275,0.044440448
1501,3.0229118,-0.045967609,-0.0041233404,0.049938235
1502,3.0249122,-0.049632803,0.0074830991,0.054214291
1503,3.0269122,-0.048411071,0.010537425,0.053603426
1504,3.0289114,-0.053297993,0.025809057,0.05299256
1505,3.0309106,-0.055741455,0.034972034,0.05299256
1506,3.0329097,-0.057574049,0.041691553,0.052381694
1507,3.0349089,-0.05879578,0.049021937,0.04932737
1508,3.0369081,-0.06307184,0.058184914,0.045662176
1509,3.0389081,-0.064904429,0.061850104,0.041996986
1510,3.0409081,-0.066737026,0.06246097,0.038942661
1511,3.0429081,-0.066737026,0.065515295,0.033444874
1512,3.0449081,-0.071623951,0.064904429,0.033444874
1513,3.046908,-0.067958757,0.069791354,0.027336219
1514,3.0489089,-0.067958757,0.071623951,0.027336219
1515,3.0509097,-0.066737026,0.078343466,0.02611449
1516,3.0529105,-0.06612616,0.080786929,0.023671029
1517,3.0549114,-0.063682705,0.08933904,0.020005837
1518,3.0569114,-0.064904429,0.091171637,0.020616703
1519,3.0589118,-0.063682705,0.094836831,0.016951511
1520,3.0609118,-0.061850104,0.094836831,0.016951511
1521,3.0629118,-0.064904429,0.0936151,0.01450805
1522,3.0649119,-0.063682705,0.08933904,0.013897184
1523,3.0669119,-0.06307184,0.080786929,0.012064588
1524,3.0689111,-0.064904429,0.0777326,0.012064588
1525,3.0709102,-0.066737026,0.071013086,0.010842858
1526,3.0729102,-0.069180489,0.064293563,0.012064588
1527,3.0749102,-0.069791354,0.05879578,0.010231993
1528,3.0769102,-0.074678279,0.053297993,0.0096211275
1529,3.0789102,-0.072845683,0.050243668,0.0096211275
1530,3.0809102,-0.072845683,0.049632803,0.0077885319
1531,3.0829102,-0.075289145,0.049021937,0.0096211275
1532,3.0849102,-0.075289145,0.044745877,0.010842858
1533,3.0869102,-0.074678279,0.04352415,0.013897184
1534,3.0889111,-0.072845683,0.042302419,0.012064588
1535,3.0909119,-0.072845683,0.042302419,0.013286319
1536,3.0929127,-0.072845683,0.040469822,0.01450805
1537,3.094913,-0.07040222,0.041080687,0.015729779
1538,3.0969138,-0.06612616,0.041080687,0.017562376
1539,3.0989138,-0.064904429,0.03924809,0.016340645
1540,3.1009138,-0.061850104,0.03924809,0.018784106
1541,3.1029137,-0.058184914,0.03924809,0.020005837
1542,3.1049137,-0.053908858,0.034972034,0.021227567
1543,3.1069138,-0.051465396,0.0355829,0.023060163
1544,3.108913,-0.04718934,0.033750303,0.022449298
1545,3.1109122,-0.041080687,0.028863383,0.022449298
1546,3.1129122,-0.033750303,0.02397646,0.023060163
1547,3.1149122,-0.025809057,0.020922136,0.023671029
1548,3.1169123,-0.022754731,0.019700404,0.023060163
1549,3.1189124,-0.015424347,0.021532999,0.022449298
1550,3.1209124,-0.011759156,0.025809057,0.023671029
1551,3.1229124,-0.0062613687,0.025198191,0.024281893
1552,3.1249124,-0.001985312,0.028863383,0.027947085
1553,3.1269123,0.0041233404,0.033139441,0.026725354
1554,3.1289132,0.0059559359,0.034361169,0.027336219
1555,3.130914,0.0096211275,0.038026363,0.031001411
1556,3.132914,0.0090102628,0.039858956,0.031612277
1557,3.134914,0.010842858,0.044135015,0.02977968
1558,3.136914,0.011453724,0.053297993,0.032834008
1559,3.138914,0.011453724,0.056352317,0.031001411
1560,3.1409141,0.012064588,0.060628377,0.032223143
1561,3.1429141,0.0090102628,0.06612616,0.02977968
1562,3.1449141,0.0083993971,0.07040222,0.02977968
1563,3.1469142,0.0065668016,0.076510869,0.027947085
1564,3.1489133,0.0065668016,0.080786929,0.026725354
1565,3.1509125,0.0071776668,0.087506443,0.028557951
1566,3.1529116,0.0035124752,0.091782503,0.032223143
1567,3.1549113,0.0022907446,0.098502018,0.032223143
1568,3.1569113,0.00290161,0.10155635,0.031612277
1569,3.1589113,-0.0032070426,0.10216721,0.026725354
1570,3.1609118,-0.0074830991,0.091171637,0.020616703
1571,3.1629118,-0.00870483,0.088728175,0.016951511
1572,3.1649118,-0.015424347,0.085673854,0.0077885319
1573,3.1669117,-0.015424347,0.088117309,-0.00076358154
1574,3.1689125,-0.012370021,0.091171637,-0.001985312
1575,3.1709133,-0.0038179078,0.10888673,0.0010690142
1576,3.1729133,0.0090102628,0.13332134,0.0090102628
1577,3.1749133,0.015729779,0.14614952,0.012064588
1578,3.1769132,0.025503624,0.17241672,0.012675454
1579,3.1789127,0.035277467,0.19318613,0.016951511
1580,3.1809126,0.035888333,0.20357084,0.012675454
1581,3.1829126,0.038942661,0.22006421,0.011453724
1582,3.1849127,0.04138612,0.22739458,0.0059559359
1583,3.1869127,0.040164389,0.22922719,0.0010690142
1584,3.1889119,0.035888333,0.22495113,-0.00870483
1585,3.190911,0.02977968,0.21639901,-0.020922136
1586,3.1929102,0.024892759,0.20540343,-0.025198191
1587,3.1949094,0.015729779,0.19624045,-0.0355829
1588,3.1969094,0.0041233404,0.18891008,-0.041080687
1589,3.1989094,0.0010690142,0.18646662,-0.042302419
1590,3.2009097,-0.0038179078,0.18280143,-0.04352415
1591,3.2029097,0.0010690142,0.17241672,-0.046578474
1592,3.2049097,-0.00015271631,0.16691893,-0.04718934
1593,3.2069096,0.0035124752,0.16081028,-0.047800206
1594,3.2089105,0.0071776668,0.15592335,-0.048411071
1595,3.2109113,0.010231993,0.15409076,-0.04718934
1596,3.2129122,0.015729779,0.14737125,-0.047800206
1597,3.214913,0.020616703,0.14431691,-0.048411071
1598,3.2169131,0.021227567,0.14309518,-0.049021937
1599,3.2189131,0.024892759,0.1375974,-0.051465396
1600,3.2209127,0.02977968,0.13087788,-0.054519724
1601,3.2229127,0.030390546,0.12843442,-0.053297993
1602,3.2249128,0.035888333,0.12049317,-0.054519724
1603,3.2269128,0.039553523,0.11621711,-0.054519724
1604,3.2289119,0.041996986,0.11560625,-0.052687127
1605,3.2309111,0.041996986,0.11316279,-0.05085453
1606,3.2329102,0.043218717,0.11194105,-0.04718934
1607,3.2349093,0.043829583,0.10705414,-0.040469822
1608,3.2369085,0.043218717,0.10399981,-0.034972034
1609,3.238908,0.040775254,0.10216721,-0.028252518
1610,3.240908,0.040164389,0.10399981,-0.022143865
1611,3.242908,0.033444874,0.10216721,-0.012370021
1612,3.244908,0.027336219,0.10338894,-0.0062613687
1613,3.2469079,0.023060163,0.10277808,-0.0025961774
1614,3.2489084,0.015118915,0.10461067,0.0077885319
1615,3.2509093,0.0041233404,0.11194105,0.015729779
1616,3.2529101,-0.00076358154,0.11499538,0.022449298
1617,3.2549109,-0.011759156,0.12599096,0.030390546
1618,3.2569109,-0.020922136,0.1375974,0.038331795
1619,3.2589109,-0.028863383,0.14920384,0.041996986
1620,3.2609105,-0.039858956,0.16752979,0.046883907
1621,3.2629105,-0.044135015,0.18463401,0.046883907
1622,3.2649105,-0.050243668,0.19074267,0.052381694
1623,3.2669106,-0.059406646,0.20662516,0.055436023
1624,3.2689097,-0.063682705,0.21456642,0.05665775
1625,3.2709098,-0.063682705,0.22739458,0.060322944
1626,3.2729098,-0.065515295,0.23533584,0.059712078
1627,3.2749098,-0.06307184,0.23961189,0.062766403
1628,3.2769098,-0.060017511,0.24083363,0.067042463
1629,3.2789098,-0.058184914,0.24572055,0.065820731
1630,3.2809094,-0.05513059,0.24327709,0.065820731
1631,3.2829094,-0.04718934,0.2359467,0.065820731
1632,3.2849093,-0.041691553,0.23105977,0.063988134
1633,3.2869093,-0.034972034,0.22434026,0.062155537
1634,3.2889101,-0.030695979,0.21700987,0.060322944
1635,3.2909109,-0.021532999,0.20234911,0.05665775
1636,3.2929118,-0.017256944,0.19990565,0.056046885
1637,3.2949127,-0.0056505036,0.1919644,0.052381694
1638,3.2969135,0.0065668016,0.1797471,0.048105638
1639,3.2989142,0.012064588,0.17608191,0.045662176
1640,3.3009142,0.024892759,0.16752979,0.04138612
1641,3.3029142,0.034666602,0.1638646,0.03772093
1642,3.3049143,0.039553523,0.1601994,0.034666602
1643,3.3069143,0.04932737,0.15775596,0.031612277
1644,3.3089138,0.059712078,0.1601994,0.023060163
1645,3.3109129,0.06093381,0.16081028,0.020616703
1646,3.3129129,0.072540246,0.17119499,0.016340645
1647,3.3149129,0.077427171,0.18280143,0.011453724
1648,3.3169129,0.081092358,0.18707748,0.0090102628
1649,3.3189129,0.087201014,0.19990565,0.0022907446
1650,3.3209129,0.091477074,0.21456642,-0.0056505036
1651,3.3229129,0.094531395,0.2218968,-0.0068722339
1652,3.3249128,0.097585723,0.2359467,-0.016646078
1653,3.3269128,0.10064005,0.25366178,-0.024587326
1654,3.3289132,0.098807454,0.26282477,-0.02397646
1655,3.3309131,0.097585723,0.2854268,-0.033139441
1656,3.3329131,0.098807454,0.30375275,-0.03924809
1657,3.3349131,0.098807454,0.31413746,-0.041080687
1658,3.336913,0.097585723,0.33124167,-0.046578474
1659,3.338913,0.094531395,0.34345898,-0.050243668
1660,3.3409131,0.093309663,0.34834591,-0.05085453
1661,3.3429132,0.091477074,0.35811976,-0.056352317
1662,3.3449132,0.090866208,0.36361754,-0.059406646
1663,3.3469132,0.088422745,0.36911532,-0.058184914
1664,3.3489125,0.086590149,0.36911532,-0.059406646
1665,3.3509117,0.082314089,0.36911532,-0.061850104
1666,3.3529108,0.082314089,0.36483926,-0.061850104
1667,3.35491,0.079870634,0.36056322,-0.060017511
1668,3.3569099,0.074983709,0.35262197,-0.061850104
1669,3.3589102,0.073761977,0.34773505,-0.06307184
1670,3.3609101,0.071318515,0.33124167,-0.06246097
1671,3.3629101,0.069485925,0.31963524,-0.061239243
1672,3.3649101,0.068264194,0.30925053,-0.060017511
1673,3.36691,0.066431597,0.29153544,-0.058184914
1674,3.3689109,0.065820731,0.2677117,-0.056352317
1675,3.3709118,0.065820731,0.25610524,-0.056352317
1676,3.3729118,0.066431597,0.2237294,-0.055741455
1677,3.3749118,0.067042463,0.19379699,-0.055741455
1678,3.3769119,0.068264194,0.17913623,-0.053297993
1679,3.3789119,0.067653328,0.1498147,-0.052076261
1680,3.3809119,0.070707649,0.11560625,-0.052076261
1681,3.382912,0.068264194,0.10216721,-0.049632803
1682,3.384912,0.070707649,0.069180489,-0.047800206
1683,3.386912,0.071318515,0.036804631,-0.049021937
1684,3.3889116,0.071318515,0.023365596,-0.047800206
1685,3.3909107,0.070096783,-0.0035124752,-0.049021937
1686,3.3929099,0.068875059,-0.016340645,-0.045967609
1687,3.394909,0.067653328,-0.037110064,-0.046578474
1688,3.396909,0.065209866,-0.05299256,-0.044745877
1689,3.398909,0.063988134,-0.06093381,-0.044745877
1690,3.4009093,0.063988134,-0.074372843,-0.044135015
1691,3.4029092,0.056046885,-0.073761977,-0.045967609
1692,3.4049092,0.051159963,-0.068875059,-0.045356743
1693,3.4069092,0.040164389,-0.051770829,-0.045356743
1694,3.40891,0.029168816,-0.030390546,-0.047800206
1695,3.4109108,0.02611449,-0.024281893,-0.049021937
1696,3.4129117,0.020005837,-0.018784106,-0.048411071
1697,3.4149125,0.018784106,-0.017562376,-0.045967609
1698,3.4169125,0.018784106,-0.018784106,-0.042913284
1699,3.4189117,0.020005837,-0.02611449,-0.03924809
1700,3.4209117,0.019394971,-0.034055736,-0.03191771
1701,3.4229118,0.01817324,-0.035888333,-0.025809057
1702,3.4249118,0.016340645,-0.03772093,-0.021532999
1703,3.4269118,0.0059559359,-0.03772093,-0.019700404
1704,3.428911,0.0022907446,-0.035888333,-0.017867809
1705,3.4309102,-0.010537425,-0.031612277,-0.014813482
1706,3.4329093,-0.017256944,-0.031001411,-0.0068722339
1707,3.4349084,-0.022143865,-0.027336219,-0.0044287732
1708,3.4369075,-0.02397646,-0.022449298,0.0053450707
1709,3.4389075,-0.022754731,-0.01450805,0.0077885319
1710,3.4409074,-0.024587326,-0.0090102628,0.013897184
1711,3.4429074,-0.022143865,0.0038179078,0.015118915
1712,3.4449074,-0.019700404,0.018478673,0.013286319
1713,3.4469074,-0.015424347,0.027030786,0.012064588
1714,3.4489093,-0.016035212,0.04718934,0.0077885319
1715,3.4509102,-0.011148291,0.071623951,0.0010690142
1716,3.4529111,-0.0099265603,0.084452122,0.0016798794
1717,3.454912,-0.00870483,0.10705414,-0.0074830991
1718,3.456912,-0.0050396384,0.12965615,-0.010537425
1719,3.4589121,-0.0056505036,0.14065172,-0.010537425
1720,3.4609121,-0.0013744468,0.15531249,-0.0099265603
1721,3.4629121,0.00045814895,0.1656972,-0.0080939643
1722,3.4649122,-0.00015271631,0.16875152,-0.0044287732
1723,3.4669122,0.0035124752,0.16508633,-0.0013744468
1724,3.4689113,0.0053450707,0.1601994,0.0053450707
1725,3.4709113,0.0077885319,0.15531249,0.0077885319
1726,3.4729113,0.0077885319,0.14431691,0.011453724
1727,3.4749113,0.0096211275,0.13026701,0.013897184
1728,3.4769113,0.0077885319,0.12232576,0.013897184
1729,3.4789117,0.0077885319,0.10705414,0.017562376
1730,3.4809117,0.010842858,0.091171637,0.015118915
1731,3.4829116,0.0096211275,0.083230391,0.016340645
1732,3.4849116,0.0090102628,0.069180489,0.016951511
1733,3.4869115,0.012064588,0.05879578,0.016340645
1734,3.4889124,0.011453724,0.054519724,0.018784106
1735,3.4909132,0.015118915,0.048411071,0.01817324
1736,3.492914,0.018784106,0.044135015,0.019394971
1737,3.4949149,0.019394971,0.041691553,0.018784106
1738,3.4969158,0.025503624,0.03924809,0.016951511
1739,3.4989158,0.029168816,0.04352415,0.016951511
1740,3.5009159,0.033444874,0.042302419,0.016951511
1741,3.5029159,0.036499199,0.045356743,0.016340645
1742,3.5049159,0.043829583,0.048411071,0.010231993
1743,3.506916,0.04505131,0.05513059,0.010231993
1744,3.508914,0.048105638,0.060628377,0.0065668016
1745,3.5109135,0.051770829,0.064293563,0.0041233404
1746,3.5129135,0.055436023,0.068569623,0.0010690142
1747,3.5149134,0.057879481,0.074678279,-0.0032070426
1748,3.5169134,0.062766403,0.080786929,-0.0080939643
1749,3.5189134,0.063377269,0.085673854,-0.0093156947
1750,3.5209133,0.065820731,0.088728175,-0.011759156
1751,3.5229132,0.071318515,0.0936151,-0.014202617
1752,3.5249132,0.072540246,0.093004234,-0.017256944
1753,3.5269132,0.074983709,0.095447697,-0.019089539
1754,3.5289141,0.075594574,0.095447697,-0.019700404
1755,3.5309141,0.07620544,0.098502018,-0.022754731
1756,3.5329141,0.078038037,0.096669428,-0.027030786
1757,3.5349138,0.075594574,0.098502018,-0.026419923
1758,3.5369138,0.078648902,0.096669428,-0.028252518
1759,3.5389143,0.078038037,0.098502018,-0.030085113
1760,3.5409139,0.078038037,0.098502018,-0.032528576
1761,3.5429139,0.076816306,0.096669428,-0.03191771
1762,3.5449139,0.074372843,0.0936151,-0.03191771
1763,3.5469139,0.073761977,0.092393368,-0.033750303
1764,3.548913,0.073761977,0.093004234,-0.033139441
1765,3.5509122,0.073151112,0.088117309,-0.0355829
1766,3.5529113,0.071318515,0.087506443,-0.034361169
1767,3.5549104,0.069485925,0.086895578,-0.0355829
1768,3.5569104,0.068264194,0.078343466,-0.036193766
1769,3.5589104,0.066431597,0.078343466,-0.037415497
1770,3.5609103,0.064599,0.071013086,-0.036193766
1771,3.5629103,0.062766403,0.067347892,-0.0355829
1772,3.5649103,0.060322944,0.063682705,-0.034972034
1773,3.5669102,0.059712078,0.053908858,-0.036193766
1774,3.5689111,0.057268616,0.05085453,-0.038026363
1775,3.5709116,0.05665775,0.04718934,-0.034972034
1776,3.5729116,0.054214291,0.042913284,-0.033750303
1777,3.5749116,0.053603426,0.034361169,-0.033750303
1778,3.5769117,0.051770829,0.033139441,-0.034972034
1779,3.5789117,0.04932737,0.030085113,-0.031306844
1780,3.5809117,0.046883907,0.028863383,-0.030085113
1781,3.5829119,0.048105638,0.02397646,-0.03191771
1782,3.5849119,0.046273042,0.024587326,-0.030695979
1783,3.5869119,0.043829583,0.02397646,-0.026419923
1784,3.588911,0.041996986,0.02397646,-0.025809057
1785,3.5909101,0.042607851,0.023365596,-0.024587326
1786,3.5929093,0.042607851,0.025809057,-0.022143865
1787,3.5949087,0.040775254,0.026419923,-0.022143865
1788,3.5969087,0.040164389,0.026419923,-0.023365596
1789,3.5989084,0.040164389,0.027641652,-0.018478673
1790,3.6009088,0.03772093,0.030085113,-0.017256944
1791,3.6029088,0.03772093,0.030085113,-0.016035212
1792,3.6049088,0.034666602,0.034361169,-0.014202617
1793,3.6069088,0.035277467,0.034361169,-0.011759156
1794,3.6089097,0.032834008,0.041080687,-0.011148291
1795,3.6109106,0.030390546,0.04352415,-0.0093156947
1796,3.6129115,0.02977968,0.044135015,-0.0099265603
1797,3.6149124,0.025503624,0.049021937,-0.0080939643
1798,3.6169124,0.024281893,0.055741455,-0.0044287732
1799,3.6189125,0.022449298,0.052687127,-0.0032070426
1800,3.6209125,0.018784106,0.060017511,-0.0032070426
1801,3.6229125,0.017562376,0.063682705,-0.00076358154
1802,3.6249125,0.016340645,0.064293563,0.0010690142
1803,3.6269125,0.012064588,0.069791354,0.0010690142
1804,3.6289116,0.010231993,0.074678279,0.00290161
1805,3.6309108,0.0077885319,0.0777326,0.0022907446
1806,3.6329099,0.0065668016,0.083230391,0.0016798794
1807,3.634909,0.0053450707,0.088117309,0.0016798794
1808,3.6369081,0.0010690142,0.091171637,0.0016798794
1809,3.6389081,0.0016798794,0.099112883,0.0022907446
1810,3.640908,0.0016798794,0.10216721,0.0016798794
1811,3.642908,0.0010690142,0.10461067,0.00045814895
1812,3.644908,0.00045814895,0.10888673,-0.0013744468
1813,3.6469079,0.0010690142,0.11377365,-0.0032070426
1814,3.6489088,0.0010690142,0.11621711,-0.0062613687
1815,3.6509097,0.0047342055,0.1217149,-0.0056505036
1816,3.6529105,0.0059559359,0.12232576,-0.00870483
1817,3.6549114,0.010231993,0.1253801,-0.010537425
1818,3.6569115,0.013897184,0.12232576,-0.011148291
1819,3.6589114,0.017562376,0.12476923,-0.015424347
1820,3.6609114,0.020616703,0.12232576,-0.015424347
1821,3.6629111,0.026725354,0.11988231,-0.016646078
1822,3.6649112,0.027947085,0.12293663,-0.017256944
1823,3.6669112,0.033444874,0.11988231,-0.020922136
1824,3.6689103,0.038331795,0.1217149,-0.022754731
1825,3.6709101,0.043829583,0.11988231,-0.025198191
1826,3.67291,0.048105638,0.11743885,-0.025809057
1827,3.67491,0.053603426,0.11743885,-0.027030786
1828,3.67691,0.055436023,0.11621711,-0.025809057
1829,3.6789099,0.057879481,0.11316279,-0.029474247
1830,3.6809099,0.063988134,0.11133019,-0.032528576
1831,3.6829099,0.068264194,0.11071932,-0.033139441
1832,3.6849099,0.071318515,0.11010846,-0.033750303
1833,3.68691,0.074983709,0.10888673,-0.0355829
1834,3.6889109,0.079259768,0.11010846,-0.034972034
1835,3.6909118,0.081092358,0.10949759,-0.036193766
1836,3.6929127,0.08353582,0.10949759,-0.036193766
1837,3.6949136,0.085979283,0.10644327,-0.034972034
1838,3.6969145,0.088422745,0.10888673,-0.0355829
1839,3.6989145,0.085979283,0.10461067,-0.034972034
1840,3.7009145,0.088422745,0.10338894,-0.036804631
1841,3.7029145,0.091477074,0.10522154,-0.037415497
1842,3.7049145,0.089644477,0.10277808,-0.034361169
1843,3.7069145,0.091477074,0.10155635,-0.034361169
1844,3.7089136,0.085979283,0.097280294,-0.033139441
1845,3.7109128,0.087201014,0.091171637,-0.034361169
1846,3.7129127,0.084757552,0.090560772,-0.033139441
1847,3.7149127,0.08353582,0.083841257,-0.031306844
1848,3.7169127,0.080481499,0.075289145,-0.031306844
1849,3.718913,0.080481499,0.072845683,-0.033139441
1850,3.720913,0.075594574,0.067958757,-0.031306844
1851,3.7229132,0.073151112,0.061850104,-0.030085113
1852,3.7249132,0.074372843,0.058184914,-0.030695979
1853,3.7269132,0.069485925,0.053297993,-0.030695979
1854,3.728914,0.066431597,0.045967609,-0.030695979
1855,3.7309142,0.064599,0.044135015,-0.032528576
1856,3.7329143,0.063377269,0.036804631,-0.031306844
1857,3.7349143,0.061544672,0.032528576,-0.030695979
1858,3.7369143,0.059101213,0.030085113,-0.030695979
1859,3.7389144,0.058490347,0.023365596,-0.032528576
1860,3.7409144,0.057268616,0.017256944,-0.032528576
1861,3.7429144,0.054825157,0.014813482,-0.033139441
1862,3.7449144,0.057268616,0.0074830991,-0.034361169
1863,3.7469144,0.05299256,0.0025961774,-0.0355829
1864,3.7489135,0.054214291,-0.0010690142,-0.037415497
1865,3.7509126,0.053603426,-0.00290161,-0.038026363
1866,3.7529117,0.056046885,-0.0096211275,-0.03924809
1867,3.7549108,0.057268616,-0.010842858,-0.042913284
1868,3.7569108,0.057268616,-0.013286319,-0.044745877
1869,3.7589103,0.057268616,-0.019394971,-0.045967609
1870,3.7609103,0.061544672,-0.022449298,-0.048411071
1871,3.7629103,0.06093381,-0.024281893,-0.052076261
1872,3.7649103,0.059712078,-0.024281893,-0.052687127
1873,3.7669103,0.061544672,-0.026725354,-0.051465396
1874,3.7689112,0.063377269,-0.027336219,-0.05513059
1875,3.770912,0.061544672,-0.02611449,-0.05513059
1876,3.772912,0.065209866,-0.025503624,-0.054519724
1877,3.774912,0.063377269,-0.025503624,-0.05085453
1878,3.776912,0.065820731,-0.024892759,-0.05085453
1879,3.7789117,0.063377269,-0.023671029,-0.051465396
1880,3.7809117,0.061544672,-0.024281893,-0.053297993
1881,3.7829118,0.058490347,-0.024892759,-0.048411071
1882,3.7849118,0.058490347,-0.024892759,-0.047800206
1883,3.7869118,0.058490347,-0.025503624,-0.045356743
1884,3.788911,0.057879481,-0.024281893,-0.045356743
1885,3.7909101,0.055436023,-0.024281893,-0.041691553
1886,3.7929093,0.053603426,-0.025503624,-0.039858956
1887,3.7949084,0.052381694,-0.028557951,-0.039858956
1888,3.7969083,0.050549097,-0.030390546,-0.036193766
1889,3.7989083,0.051159963,-0.033444874,-0.034972034
1890,3.8009083,0.051159963,-0.034666602,-0.03191771
1891,3.8029082,0.046883907,-0.035888333,-0.029474247
1892,3.8049082,0.047494773,-0.036499199,-0.02397646
1893,3.8069082,0.047494773,-0.039553523,-0.02397646
1894,3.8089091,0.045662176,-0.035888333,-0.02031127
1895,3.81091,0.044440448,-0.032223143,-0.017867809
1896,3.8129109,0.043218717,-0.033444874,-0.016035212
1897,3.8149118,0.044440448,-0.029168816,-0.011759156
1898,3.8169118,0.043829583,-0.025503624,-0.011148291
1899,3.8189121,0.043829583,-0.021838432,-0.010537425
1900,3.8209121,0.043218717,-0.017562376,-0.010537425
1901,3.8229122,0.043218717,-0.010842858,-0.0062613687
1902,3.8249122,0.043829583,-0.0077885319,-0.0056505036
1903,3.8269122,0.043218717,-0.00045814895,-0.0044287732
1904,3.8289113,0.045662176,0.010537425,-0.0044287732
1905,3.8309104,0.045662176,0.015424347,-0.0025961774
1906,3.8329096,0.045662176,0.022754731,-0.0080939643
1907,3.8349087,0.046273042,0.034361169,-0.0050396384
1908,3.8369079,0.046273042,0.038026363,-0.0080939643
1909,3.8389083,0.046273042,0.045356743,-0.00870483
1910,3.8409082,0.046273042,0.051465396,-0.012980887
1911,3.8429082,0.046273042,0.056352317,-0.011759156
1912,3.8449082,0.043218717,0.061239243,-0.012980887
1913,3.8469081,0.045662176,0.064293563,-0.017256944
1914,3.848909,0.044440448,0.067347892,-0.015424347
1915,3.8509098,0.042607851,0.07040222,-0.019089539
1916,3.8529106,0.042607851,0.073456548,-0.022143865
1917,3.8549115,0.041996986,0.074067414,-0.023365596
1918,3.8569115,0.038942661,0.073456548,-0.028252518
1919,3.8589116,0.039553523,0.073456548,-0.027641652
1920,3.8609116,0.040164389,0.077121735,-0.029474247
1921,3.8629116,0.038331795,0.075289145,-0.03191771
1922,3.8649117,0.037110064,0.076510869,-0.033750303
1923,3.8669117,0.038331795,0.074678279,-0.036804631
1924,3.8689108,0.03772093,0.075900003,-0.034972034
1925,3.8709108,0.037110064,0.072845683,-0.038026363
1926,3.8729108,0.037110064,0.069791354,-0.038637228
1927,3.8749107,0.035888333,0.07040222,-0.038637228
1928,3.8769107,0.033444874,0.07040222,-0.036193766
1929,3.8789109,0.035888333,0.06612616,-0.03924809
1930,3.8809108,0.038331795,0.06246097,-0.036804631
1931,3.8829108,0.036499199,0.059406646,-0.037415497
1932,3.8849108,0.03772093,0.055741455,-0.036804631
1933,3.8869108,0.035888333,0.052076261,-0.037415497
1934,3.8889113,0.035888333,0.041691553,-0.033750303
1935,3.8909122,0.035888333,0.039858956,-0.033139441
1936,3.8929131,0.034055736,0.032528576,-0.032528576
1937,3.894914,0.034055736,0.026419923,-0.028252518
1938,3.8969156,0.034666602,0.020922136,-0.030695979
1939,3.8989157,0.032834008,0.016035212,-0.025198191
1940,3.9009158,0.032834008,0.0080939643,-0.023365596
1941,3.9029158,0.02977968,0.0050396384,-0.021532999
1942,3.9049158,0.030390546,-0.0010690142,-0.02031127
1943,3.9069158,0.030390546,-0.0035124752,-0.019700404
1944,3.9089149,0.02977968,-0.00290161,-0.019089539
1945,3.910914,0.028557951,-0.0083993971,-0.017867809
1946,3.912914,0.026725354,-0.010231993,-0.014813482
1947,3.914914,0.025503624,-0.0090102628,-0.013591751
1948,3.916914,0.024281893,-0.010842858,-0.013591751
1949,3.9189139,0.022449298,-0.010231993,-0.011148291
1950,3.9209139,0.023060163,-0.010231993,-0.011148291
1951,3.9229139,0.020005837,-0.0077885319,-0.00870483
1952,3.9249138,0.019394971,-0.00290161,-0.00870483
1953,3.9269138,0.018784106,-0.0035124752,-0.0080939643
1954,3.9289146,0.018784106,-0.00045814895,-0.0068722339
1955,3.9309146,0.016951511,0.0032070426,-0.0056505036
1956,3.9329146,0.01450805,0.0062613687,-0.0025961774
1957,3.9349146,0.012675454,0.012370021,-0.0038179078
1958,3.9369147,0.015729779,0.016035212,-0.0038179078
1959,3.9389147,0.0096211275,0.02031127,-0.0013744468
1960,3.9409147,0.012064588,0.022754731,-0.0044287732
1961,3.9429148,0.0096211275,0.029474247,0.0010690142
1962,3.9449148,0.010231993,0.029474247,0.00045814895
1963,3.9469148,0.010842858,0.034972034,-0.00015271631
1964,3.9489143,0.0083993971,0.038026363,0.0016798794
1965,3.9509134,0.0065668016,0.04352415,-0.00015271631
1966,3.9529125,0.0071776668,0.045967609,0.0022907446
1967,3.9549116,0.0071776668,0.044135015,0.0035124752
1968,3.9569108,0.0053450707,0.050243668,0.0022907446
1969,3.9589108,0.0053450707,0.051465396,0.00290161
1970,3.9609107,0.0077885319,0.052687127,0.00045814895
1971,3.9629098,0.0071776668,0.053908858,0.00045814895
1972,3.9649098,0.0071776668,0.057574049,-0.00076358154
1973,3.9669098,0.0077885319,0.05879578,-0.0013744468
1974,3.9689112,0.0041233404,0.056352317,0.0016798794
1975,3.9709121,0.0077885319,0.055741455,-0.00076358154
1976,3.9729122,0.0053450707,0.054519724,-0.0013744468
1977,3.9749122,0.0059559359,0.05513059,-0.00076358154
1978,3.9769122,0.0071776668,0.055741455,-0.00076358154
1979,3.9789123,0.0041233404,0.05513059,-0.0032070426
1980,3.9809123,0.0059559359,0.053908858,0.0010690142
1981,3.9829123,0.0059559359,0.052076261,-0.0025961774
1982,3.9849123,0.0059559359,0.050243668,-0.00076358154
1983,3.9869123,0.0053450707,0.047800206,-0.0025961774
1984,3.9889114,0.0083993971,0.044135015,-0.001985312
1985,3.9909105,0.0071776668,0.044745877,-0.0025961774
1986,3.9929097,0.0077885319,0.041080687,-0.0032070426
1987,3.9949088,0.0096211275,0.034361169,-0.0032070426
1988,3.9969087,0.0090102628,0.034361169,-0.001985312
1989,3.9989092,0.0096211275,0.028863383,-0.0013744468
1990,4.0009091,0.010231993,0.021532999,-0.0032070426
1991,4.0029091,0.0096211275,0.020922136,-0.0032070426
1992,4.0049091,0.012675454,0.015424347,-0.0050396384
1993,4.006909,0.010842858,0.011759156,-0.0050396384
1994,4.0089099,0.012675454,0.00870483,-0.0056505036
1995,4.0109107,0.010842858,0.0080939643,-0.0050396384
1996,4.0129116,0.015729779,0.0038179078,-0.0044287732
1997,4.0149125,0.015729779,0.00076358154,-0.0044287732
1998,4.0169126,0.016340645,0.0013744468,-0.0074830991
1999,4.0189126,0.017562376,0.0013744468,-0.0080939643
2000,4.0209126,0.018784106,0.0032070426,-0.0056505036
2001,4.0229135,0.016951511,0.001985312,-0.00870483
2002,4.0249136,0.019394971,-0.00045814895,-0.0044287732
2003,4.0269136,0.020005837,0.00076358154,-0.0062613687
2004,4.0289122,0.018784106,0.00076358154,-0.0093156947
2005,4.0309113,0.021838432,0.0025961774,-0.00870483
2006,4.0329104,0.021227567,0.001985312,-0.0093156947
2007,4.0349095,0.020616703,0.0032070426,-0.0080939643
2008,4.0369086,0.022449298,0.0044287732,-0.0080939643
2009,4.0389085,0.021227567,0.0062613687,-0.0093156947
2010,4.0409085,0.023060163,0.0068722339,-0.0099265603
2011,4.0429085,0.022449298,0.0099265603,-0.012980887
2012,4.0449086,0.021838432,0.010537425,-0.011148291
2013,4.0469086,0.021838432,0.013591751,-0.012370021
2014,4.0489095,0.023671029,0.016646078,-0.012980887
2015,4.0509104,0.019394971,0.021532999,-0.011759156
2016,4.0529113,0.023060163,0.023365596,-0.014202617
2017,4.0549122,0.018784106,0.026419923,-0.013591751
2018,4.0569122,0.020005837,0.029474247,-0.016646078
2019,4.0589118,0.019394971,0.034361169,-0.016646078
2020,4.0609118,0.01817324,0.034361169,-0.014202617
2021,4.0629118,0.016951511,0.037415497,-0.017867809
2022,4.0649118,0.015118915,0.03924809,-0.016646078
2023,4.0669118,0.013897184,0.041080687,-0.019089539
2024,4.0689109,0.013897184,0.042913284,-0.018478673
2025,4.0709109,0.010231993,0.040469822,-0.019700404
2026,4.0729109,0.0096211275,0.039858956,-0.019700404
2027,4.0749108,0.0090102628,0.039858956,-0.017867809
2028,4.0769104,0.0047342055,0.038637228,-0.017867809
2029,4.0789104,0.0053450707,0.038637228,-0.02031127
2030,4.0809103,0.0035124752,0.033750303,-0.018478673
2031,4.0829103,0.0022907446,0.031306844,-0.018478673
2032,4.0849103,-0.00076358154,0.028863383,-0.02031127
2033,4.0869102,-0.00076358154,0.029474247,-0.018478673
2034,4.0889111,-0.0044287732,0.023365596,-0.017867809
2035,4.090912,-0.0038179078,0.022143865,-0.019089539
2036,4.0929129,-0.0038179078,0.019700404,-0.015424347
2037,4.0949139,-0.0062613687,0.016035212,-0.016035212
2038,4.0969148,-0.0068722339,0.014813482,-0.015424347
2039,4.0989148,-0.0068722339,0.0093156947,-0.016646078
2040,4.1009149,-0.0068722339,0.0062613687,-0.016646078
2041,4.1029149,-0.0068722339,0.0044287732,-0.015424347
2042,4.1049149,-0.0074830991,0.0013744468,-0.012980887
2043,4.1069149,-0.00870483,-0.00045814895,-0.010537425
2044,4.108914,-0.0074830991,-0.0035124752,-0.011148291
2045,4.1109131,-0.0062613687,-0.0059559359,-0.010537425
2046,4.112913,-0.0080939643,-0.010842858,-0.0099265603
2047,4.114913,-0.0068722339,-0.012064588,-0.0056505036
2048,4.116913,-0.0068722339,-0.013286319,-0.00870483
2049,4.118913,-0.0062613687,-0.017562376,-0.0062613687
2050,4.120913,-0.0074830991,-0.01817324,-0.0080939643
2051,4.122913,-0.0068722339,-0.017562376,-0.0074830991
2052,4.124913,-0.0062613687,-0.01817324,-0.0068722339
2053,4.1269135,-0.0068722339,-0.020616703,-0.0074830991
2054,4.1289144,-0.0062613687,-0.020005837,-0.0056505036
2055,4.130914,-0.0068722339,-0.018784106,-0.0056505036
2056,4.1329141,-0.0068722339,-0.01817324,-0.0044287732
2057,4.1349141,-0.0074830991,-0.01450805,-0.0013744468
2058,4.1369145,-0.0050396384,-0.013286319,-0.0032070426
2059,4.1389142,-0.0062613687,-0.013286319,-0.00076358154
2060,4.1409142,-0.0062613687,-0.0096211275,0.00045814895
2061,4.1429142,-0.0056505036,-0.0065668016,0.0010690142
2062,4.1449142,-0.0074830991,-0.0059559359,0.00290161
2063,4.1469142,-0.00870483,-0.00045814895,0.0022907446
2064,4.1489133,-0.0080939643,0.0013744468,0.00290161
2065,4.1509124,-0.0074830991,0.0025961774,0.00290161
2066,4.1529115,-0.00870483,0.0056505036,0.0022907446
2067,4.1549105,-0.0099265603,0.0068722339,0.0047342055
2068,4.1569105,-0.010537425,0.0080939643,0.0047342055
2069,4.1589104,-0.012980887,0.0080939643,0.0047342055
2070,4.1609104,-0.014813482,0.011148291,0.0077885319
2071,4.1629104,-0.013591751,0.011759156,0.0059559359
2072,4.1649103,-0.014813482,0.016035212,0.0065668016
2073,4.1669103,-0.016646078,0.017867809,0.0053450707
2074,4.1689112,-0.016035212,0.017867809,0.0065668016
2075,4.1709121,-0.017256944,0.016035212,0.0071776668
2076,4.1729122,-0.019089539,0.019089539,0.0059559359
2077,4.1749122,-0.018478673,0.02397646,0.0077885319
2078,4.1769122,-0.016646078,0.024587326,0.0035124752
2079,4.1789123,-0.018478673,0.022143865,0.0047342055
2080,4.1809123,-0.019700404,0.022143865,0.0047342055
2081,4.1829123,-0.017867809,0.02031127,0.0053450707
2082,4.1849123,-0.019089539,0.020922136,0.0035124752
2083,4.1869118,-0.016646078,0.019700404,0.0022907446
2084,4.1889109,-0.015424347,0.017867809,0.0041233404
2085,4.1909104,-0.014813482,0.018478673,0.0053450707
2086,4.1929095,-0.012370021,0.016646078,0.0016798794
2087,4.1949086,-0.0099265603,0.014813482,0.0016798794
2088,4.1969086,-0.00870483,0.011759156,0.00045814895
2089,4.1989089,-0.0062613687,0.012980887,0.00045814895
2090,4.2009089,-0.0074830991,0.0099265603,-0.001985312
2091,4.2029089,-0.0056505036,0.010537425,-0.00076358154
2092,4.2049089,-0.0068722339,0.00870483,-0.0038179078
2093,4.2069089,-0.0044287732,0.0068722339,-0.001985312
2094,4.2089098,-0.0038179078,0.0080939643,-0.0013744468
2095,4.2109107,-0.0044287732,0.0044287732,-0.0068722339
2096,4.2129115,-0.0025961774,0.0062613687,-0.0025961774
2097,4.2149124,-0.0032070426,0.0050396384,-0.0050396384
2098,4.2169124,-0.001985312,0.0056505036,-0.0025961774
2099,4.2189125,-0.001985312,0.0050396384,-0.0044287732
2100,4.2209125,0.00045814895,0.0044287732,-0.0056505036
2101,4.2229125,-0.0013744468,0.0038179078,-0.0044287732
2102,4.2249126,-0.0032070426,0.0044287732,-0.0038179078
2103,4.2269126,-0.0056505036,0.0032070426,-0.001985312
2104,4.2289117,-0.0050396384,0.0013744468,-0.0013744468
2105,4.2309108,-0.0068722339,0.00015271631,-0.00076358154
2106,4.2329099,-0.0068722339,0.0013744468,-0.0025961774
2107,4.234909,-0.0080939643,0.0013744468,-0.0025961774
2108,4.2369081,-0.00870483,0.0013744468,-0.001985312
2109,4.2389078,-0.0099265603,-0.0022907446,-0.00076358154
2110,4.2409078,-0.0099265603,-0.0010690142,0.0010690142
2111,4.2429078,-0.011759156,0.0013744468,-0.00015271631
2112,4.2449078,-0.012980887,0.0050396384,-0.00076358154
2113,4.2469078,-0.013591751,0.0044287732,0.00045814895
2114,4.2489093,-0.014813482,0.0074830991,0.00290161
2115,4.2509102,-0.012980887,0.0093156947,0.0022907446
2116,4.2529111,-0.011148291,0.011148291,0.0016798794
2117,4.254912,-0.011759156,0.012370021,0.0016798794
2118,4.2569121,-0.014813482,0.012980887,0.0010690142
2119,4.2589119,-0.014813482,0.013591751,0.0010690142
2120,4.260912,-0.013591751,0.015424347,0.0010690142
2121,4.262912,-0.017256944,0.013591751,0.00045814895
2122,4.264912,-0.015424347,0.014202617,0.0035124752
2123,4.266912,-0.014202617,0.012980887,0.0041233404
2124,4.2689112,-0.016035212,0.012980887,0.0022907446
2125,4.2709112,-0.017867809,0.012370021,0.00045814895
2126,4.2729112,-0.019089539,0.014202617,0.0016798794
2127,4.2749112,-0.019700404,0.013591751,0.0016798794
2128,4.2769111,-0.019700404,0.012980887,0.00290161
2129,4.2789111,-0.020922136,0.014202617,0.00045814895
2130,4.2809107,-0.021532999,0.012980887,0.00290161
2131,4.2829107,-0.02397646,0.012980887,0.00045814895
2132,4.2849107,-0.025198191,0.013591751,0.0022907446
2133,4.2869106,-0.028863383,0.012980887,0.0035124752
2134,4.2889115,-0.029474247,0.011759156,0.0016798794
2135,4.2909123,-0.031306844,0.011759156,0.0047342055
2136,4.2929132,-0.033750303,0.011148291,0.0053450707
2137,4.2949141,-0.032528576,0.011148291,0.0059559359
2138,4.296915,-0.034972034,0.0093156947,0.0065668016
2139,4.2989146,-0.034972034,0.0074830991,0.0077885319
2140,4.3009146,-0.036193766,0.0068722339,0.0083993971
2141,4.3029146,-0.036193766,0.0068722339,0.0096211275
2142,4.3049147,-0.040469822,0.0050396384,0.010231993
2143,4.3069147,-0.0355829,0.0050396384,0.010842858
2144,4.3089131,-0.038026363,0.0050396384,0.011453724
2145,4.3109122,-0.036193766,0.00015271631,0.011453724
2146,4.3129113,-0.036193766,0.00076358154,0.013286319
2147,4.3149113,-0.033750303,-0.0065668016,0.013897184
2148,4.3169113,-0.033139441,-0.0071776668,0.013897184
2149,4.3189114,-0.033139441,-0.0059559359,0.015118915
2150,4.3209114,-0.03191771,-0.012064588,0.01450805
2151,4.3229114,-0.028863383,-0.013286319,0.016340645
2152,4.3249114,-0.030695979,-0.018784106,0.015118915
2153,4.3269114,-0.027641652,-0.018784106,0.015729779
2154,4.3289122,-0.026419923,-0.022449298,0.013897184
2155,4.3309123,-0.026419923,-0.024892759,0.016340645
2156,4.3329123,-0.02397646,-0.023671029,0.013897184
2157,4.3349123,-0.02397646,-0.025503624,0.012675454
2158,4.3369124,-0.026419923,-0.027336219,0.015118915
2159,4.3389124,-0.02397646,-0.027947085,0.013286319
2160,4.3409127,-0.02397646,-0.026725354,0.013897184
2161,4.3429127,-0.02397646,-0.027336219,0.013897184
2162,4.3449127,-0.02397646,-0.024281893,0.011453724
2163,4.3469127,-0.024587326,-0.022449298,0.010842858
2164,4.3489119,-0.022754731,-0.020616703,0.010231993
2165,4.350911,-0.024587326,-0.020005837,0.013286319
2166,4.3529101,-0.022143865,-0.015118915,0.010231993
2167,4.3549092,-0.026419923,-0.010231993,0.0090102628
2168,4.3569092,-0.027641652,-0.010231993,0.0096211275
2169,4.3589099,-0.02397646,-0.0071776668,0.0096211275
2170,4.3609099,-0.025198191,-0.0041233404,0.0065668016
2171,4.3629098,-0.026419923,-0.0022907446,0.0065668016
2172,4.3649094,-0.025809057,0.00015271631,0.0077885319
2173,4.3669093,-0.023365596,0.0013744468,0.0065668016
2174,4.3689104,-0.023365596,0.001985312,0.0059559359
2175,4.3709115,-0.025198191,0.0044287732,0.0059559359
2176,4.3729137,-0.023365596,0.0032070426,0.0053450707
2177,4.3749138,-0.023365596,0.0050396384,0.0053450707
2178,4.3769138,-0.022754731,0.0074830991,0.0053450707
2179,4.3789141,-0.022143865,0.0068722339,0.0035124752
2180,4.3809141,-0.022754731,0.0074830991,0.0035124752
2181,4.3829141,-0.02031127,0.0062613687,0.0035124752
2182,4.3849141,-0.020922136,0.0062613687,0.0022907446
2183,4.3869141,-0.022143865,0.0038179078,0.0035124752
2184,4.3889132,-0.022143865,0.0074830991,0.0053450707
2185,4.3909123,-0.02031127,0.0056505036,0.0041233404
2186,4.3929114,-0.019089539,0.0068722339,0.0035124752
2187,4.3949105,-0.020922136,0.0032070426,0.0022907446
2188,4.3969106,-0.017867809,0.0013744468,0.0022907446
2189,4.3989106,-0.019700404,0.00076358154,0.0053450707
2190,4.4009106,-0.018478673,-0.0010690142,0.0047342055
2191,4.4029106,-0.020922136,-0.0035124752,0.00290161
2192,4.4049107,-0.019089539,-0.0053450707,0.0016798794
2193,4.4069107,-0.019089539,-0.0083993971,0.0035124752
2194,4.4089116,-0.017867809,-0.0083993971,0.0035124752
2195,4.4109125,-0.019700404,-0.010231993,0.0041233404
2196,4.4129134,-0.019089539,-0.013897184,0.0047342055
2197,4.4149143,-0.020922136,-0.01817324,0.0053450707
2198,4.4169143,-0.02031127,-0.020005837,0.0059559359
2199,4.4189143,-0.019700404,-0.023060163,0.0059559359
2200,4.4209143,-0.018478673,-0.024281893,0.0059559359
2201,4.4229143,-0.016646078,-0.026725354,0.0053450707
2202,4.4249148,-0.019700404,-0.028557951,0.0065668016
2203,4.4269148,-0.019089539,-0.032223143,0.0059559359
2204,4.4289138,-0.017256944,-0.031612277,0.0065668016
2205,4.4309126,-0.017256944,-0.033444874,0.0071776668
2206,4.4329104,-0.017256944,-0.034055736,0.0071776668
2207,4.4349095,-0.016035212,-0.036499199,0.0053450707
2208,4.4369086,-0.014813482,-0.035888333,0.0083993971
2209,4.4389083,-0.013591751,-0.035277467,0.010231993
2210,4.4409083,-0.014813482,-0.034055736,0.0090102628
2211,4.4429082,-0.012980887,-0.031612277,0.010231993
2212,4.4449082,-0.012980887,-0.032223143,0.010231993
2213,4.4469082,-0.012980887,-0.028557951,0.010842858
2214,4.4489091,-0.012370021,-0.02611449,0.010231993
2215,4.45091,-0.014813482,-0.024892759,0.012675454
2216,4.4529109,-0.015424347,-0.021838432,0.0096211275
2217,4.4549118,-0.016035212,-0.020616703,0.012675454
2218,4.4569116,-0.018478673,-0.016951511,0.010842858
2219,4.4589117,-0.017867809,-0.017562376,0.012064588
2220,4.4609117,-0.016646078,-0.013897184,0.011453724
2221,4.4629123,-0.022143865,-0.012675454,0.011453724
2222,4.4649123,-0.022143865,-0.012675454,0.012064588
2223,4.4669123,-0.021532999,-0.0096211275,0.011453724
2224,4.4689114,-0.022754731,-0.010231993,0.010842858
2225,4.4709113,-0.022143865,-0.0090102628,0.011453724
2226,4.4729113,-0.023365596,-0.010231993,0.011453724
2227,4.4749113,-0.024587326,-0.010842858,0.011453724
2228,4.4769112,-0.025198191,-0.012064588,0.012064588
2229,4.4789112,-0.02397646,-0.012675454,0.011453724
2230,4.4809113,-0.02397646,-0.012675454,0.010842858
2231,4.4829113,-0.024587326,-0.019394971,0.010231993
2232,4.4849113,-0.022754731,-0.019394971,0.011453724
2233,4.4869114,-0.021532999,-0.020005837,0.010842858
2234,4.4889123,-0.020922136,-0.023671029,0.011453724
2235,4.4909132,-0.016646078,-0.027947085,0.0096211275
2236,4.4929141,-0.018478673,-0.028557951,0.010842858
2237,4.494915,-0.017867809,-0.034666602,0.0096211275
2238,4.4969158,-0.015424347,-0.032223143,0.0083993971
2239,4.4989158,-0.013591751,-0.032223143,0.0065668016
2240,4.5009158,-0.013591751,-0.033444874,0.0077885319
2241,4.5029158,-0.0099265603,-0.032223143,0.0065668016
2242,4.5049158,-0.0099265603,-0.02977968,0.0065668016
2243,4.5069158,-0.0056505036,-0.02977968,0.0047342055
2244,4.508915,-0.0056505036,-0.028557951,0.0035124752
2245,4.5109141,-0.0062613687,-0.025503624,0.0010690142
2246,4.512914,-0.0044287732,-0.024892759,-0.0013744468
2247,4.514914,-0.001985312,-0.022449298,-0.00015271631
2248,4.516914,-0.00076358154,-0.019394971,-0.0025961774
2249,4.5189139,0.0016798794,-0.016951511,-0.0050396384
2250,4.5209139,0.0016798794,-0.015118915,-0.0050396384
2251,4.5229133,0.00290161,-0.012675454,-0.0068722339
2252,4.5249132,0.0010690142,-0.011453724,-0.0080939643
2253,4.5269132,0.00290161,-0.010231993,-0.0050396384
2254,4.5289143,0.0035124752,-0.0090102628,-0.0074830991
2255,4.5309144,0.0016798794,-0.0047342055,-0.0093156947
2256,4.5329144,0.0053450707,-0.0059559359,-0.010537425
2257,4.5349144,0.0059559359,-0.0047342055,-0.0099265603
2258,4.5369145,0.0035124752,-0.0065668016,-0.0099265603
2259,4.5389145,0.0065668016,-0.0016798794,-0.012980887
2260,4.5409145,0.0041233404,-0.0016798794,-0.011148291
2261,4.5429145,0.0035124752,0.00076358154,-0.010537425
2262,4.5449145,0.0047342055,0.001985312,-0.0074830991
2263,4.5469144,0.00290161,0.0025961774,-0.0099265603
2264,4.5489135,0.0035124752,0.0025961774,-0.0068722339
2265,4.5509126,0.0016798794,0.0038179078,-0.0062613687
2266,4.5529117,0.00045814895,0.0056505036,-0.0068722339
2267,4.5549108,-0.00076358154,0.0056505036,-0.0050396384
2268,4.5569108,-0.0025961774,0.0062613687,-0.001985312
2269,4.5589111,-0.0025961774,0.0062613687,-0.001985312
2270,4.5609111,-0.0056505036,0.0032070426,-0.0025961774
2271,4.5629112,-0.0080939643,0.0025961774,0.0010690142
2272,4.5649112,-0.00870483,0.0013744468,0.0016798794
2273,4.5669112,-0.011759156,0.00015271631,0.0035124752
2274,4.5689117,-0.010537425,-0.0035124752,0.0035124752
2275,4.5709126,-0.012980887,-0.00290161,0.0053450707
2276,4.5729127,-0.015424347,-0.0047342055,0.0053450707
2277,4.5749127,-0.019089539,-0.0077885319,0.0096211275
2278,4.5769127,-0.019089539,-0.010842858,0.010231993
2279,4.5789127,-0.02031127,-0.010842858,0.010842858
2280,4.5809127,-0.024587326,-0.010231993,0.013286319
2281,4.5829127,-0.02397646,-0.0096211275,0.01450805
2282,4.5849127,-0.026419923,-0.010231993,0.016340645
2283,4.5869127,-0.027641652,-0.012064588,0.017562376
2284,4.5889116,-0.028863383,-0.013286319,0.01817324
2285,4.5909107,-0.026419923,-0.012064588,0.020005837
2286,4.5929098,-0.028863383,-0.011453724,0.020616703
